rt,responses,questionId,trial_type,trial_index,time_elapsed,internal_node_id,subjectId,group,view_history,stimulus,button_pressed,id,type,shape,phrase,condition
24072,5f46b227eb8fa3064a301c6e,ProlificID,survey-text,0,24073,0.0-0.0,lhn2nb4fwo,wug=upward,,,,,,,,
31546,NA,instructions,instructions,1,55619,0.0-1.0,lhn2nb4fwo,wug=upward,"[{""page_index"":0,""viewing_time"":31545}]",,,,,,,
9881,NA,,html-button-delay-response,2,65502,0.0-2.0,lhn2nb4fwo,wug=upward,,<div class='container'><div class='ball_test'><div class='redline'></div> <div class='wug2'></div></div></div></div><button onclick = 'DoAnimation();'>Please click here for animation!</button>,0,teaching.2,teaching,The green circle,,
5316,NA,,html-button-delay-response,3,71320,0.0-3.0,lhn2nb4fwo,wug=upward,,<div class='container'><div class='ball_test'><div class='redline'></div> <div class='wug3b'></div></div></div></div><button onclick = 'DoAnimation();'>Please click here for animation!</button>,0,teaching.7,teaching,The green circle,,
3602,NA,,html-button-delay-response,4,75423,0.0-4.0,lhn2nb4fwo,wug=upward,,<div class='container'><div class='ball_test'><div class='redline'></div> <div class='wug3'></div></div></div></div><button onclick = 'DoAnimation();'>Please click here for animation!</button>,0,teaching.3,teaching,The green circle,,
3831,NA,,html-button-delay-response,5,79756,0.0-5.0,lhn2nb4fwo,wug=upward,,<div class='container'><div class='ball_test'><div class='redline'></div> <div class='wug1b'></div></div></div></div><button onclick = 'DoAnimation();'>Please click here for animation!</button>,0,teaching.5,teaching,The green circle,,
3777,NA,,html-button-delay-response,6,84034,0.0-6.0,lhn2nb4fwo,wug=upward,,<div class='container'><div class='ball_test'><div class='redline'></div> <div class='wug4'></div></div></div></div><button onclick = 'DoAnimation();'>Please click here for animation!</button>,0,teaching.4,teaching,The green circle,,
3210,NA,,html-button-delay-response,7,87747,0.0-7.0,lhn2nb4fwo,wug=upward,,<div class='container'><div class='ball_test'><div class='redline'></div> <div class='wug2b'></div></div></div></div><button onclick = 'DoAnimation();'>Please click here for animation!</button>,0,teaching.6,teaching,The green circle,,
2633,NA,,html-button-delay-response,8,90881,0.0-8.0,lhn2nb4fwo,wug=upward,,<div class='container'><div class='ball_test'><div class='redline'></div> <div class='wug4b'></div></div></div></div><button onclick = 'DoAnimation();'>Please click here for animation!</button>,0,teaching.8,teaching,The green circle,,
2845,NA,,html-button-delay-response,9,94228,0.0-9.0,lhn2nb4fwo,wug=upward,,<div class='container'><div class='ball_test'><div class='redline'></div> <div class='wug1'></div></div></div></div><button onclick = 'DoAnimation();'>Please click here for animation!</button>,0,teaching.1,teaching,The green circle,,
17677,NA,break,html-button-response,10,112406,0.0-10.0,lhn2nb4fwo,wug=upward,,"<p style='text-align:center'>Now, let's see how <b>you</b> use <i>wug</i>!</p> <p style='text-align:center'> You will see two animations but only one of them is visible, the other hidden.  Your task is to decide whether the sentence you will see describes the visible animation or the hidden animation. You should choose the hidden scenario if you consider the visible one inappropriate given the sentence you will see. </p>",0,,,,,
20654,NA,,html-button-delay-response,11,133061,0.0-11.0,lhn2nb4fwo,wug=upward,,<div class='container2'><div class='ball'><div class='redline'></div> <div class='wug3b'></div> </div><div class = 'ball2'></div></div><button onclick = 'DoAnimation();'>Please click here for animation!</button>,0,testing.3,testing,The green circle,does not wug.,notAB
6208,NA,,html-button-delay-response,12,139771,0.0-12.0,lhn2nb4fwo,wug=upward,,<div class='container2'><div class='ball'><div class='redline'></div> <div class='wug1'></div> </div><div class = 'ball2'></div></div><button onclick = 'DoAnimation();'>Please click here for animation!</button>,1,testing.1,testing,The green circle,does not wug.,AB
6548,NA,,html-button-delay-response,13,146820,0.0-13.0,lhn2nb4fwo,wug=upward,,<div class='container2'><div class='ball'><div class='redline'></div> <div class='wug2'></div> </div><div class = 'ball2'></div></div><button onclick = 'DoAnimation();'>Please click here for animation!</button>,0,testing.2,testing,The green circle,wugs.,AB
7046,NA,,html-button-delay-response,14,154366,0.0-14.0,lhn2nb4fwo,wug=upward,,<div class='container2'><div class='ball'><div class='redline'></div> <div class='wug4b'></div> </div><div class = 'ball2'></div></div><button onclick = 'DoAnimation();'>Please click here for animation!</button>,1,testing.4,testing,The green circle,wugs.,notAB
9861,NA,,html-button-delay-response,15,164728,0.0-15.0,lhn2nb4fwo,wug=upward,,<div class='container2'><div class='ball'><div class='redline'></div> <div class='dot1a'></div> </div><div class = 'ball2'></div></div><button onclick = 'DoAnimation();'>Please click here for animation!</button>,1,testing.11,testing,The green circle,wugs.,notAnotB
11528,NA,,html-button-delay-response,16,176759,0.0-16.0,lhn2nb4fwo,wug=upward,,<div class='container2'><div class='ball'><div class='redline'></div> <div class='dot1'></div> </div><div class = 'ball2'></div></div><button onclick = 'DoAnimation();'>Please click here for animation!</button>,0,testing.7,testing,The green circle,wugs.,AnotB
5001,NA,,html-button-delay-response,17,182261,0.0-17.0,lhn2nb4fwo,wug=upward,,<div class='container2'><div class='ball'><div class='redline'></div> <div class='dot4a'></div> </div><div class = 'ball2'></div></div><button onclick = 'DoAnimation();'>Please click here for animation!</button>,0,testing.12,testing,The green circle,does not wug.,notAnotB
5161,NA,,html-button-delay-response,18,187925,0.0-18.0,lhn2nb4fwo,wug=upward,,<div class='container2'><div class='ball'><div class='redline'></div> <div class='dot4'></div> </div><div class = 'ball2'></div></div><button onclick = 'DoAnimation();'>Please click here for animation!</button>,1,testing.8,testing,The green circle,does not wug.,AnotB
6934,NA,,html-button-delay-response,19,195361,0.0-19.0,lhn2nb4fwo,wug=upward,,<div class='container2'><div class='ball'><div class='redline'></div> <div class='dot3a'></div> </div><div class = 'ball2'></div></div><button onclick = 'DoAnimation();'>Please click here for animation!</button>,0,testing.10,testing,The green circle,does not wug.,notAnotB
3187,NA,,html-button-delay-response,20,199049,0.0-20.0,lhn2nb4fwo,wug=upward,,<div class='container2'><div class='ball'><div class='redline'></div> <div class='dot2a'></div> </div><div class = 'ball2'></div></div><button onclick = 'DoAnimation();'>Please click here for animation!</button>,1,testing.9,testing,The green circle,wugs.,notAnotB
2831,NA,,html-button-delay-response,21,202381,0.0-21.0,lhn2nb4fwo,wug=upward,,<div class='container2'><div class='ball'><div class='redline'></div> <div class='dot2'></div> </div><div class = 'ball2'></div></div><button onclick = 'DoAnimation();'>Please click here for animation!</button>,0,testing.5,testing,The green circle,wugs.,AnotB
4061,NA,,html-button-delay-response,22,206944,0.0-22.0,lhn2nb4fwo,wug=upward,,<div class='container2'><div class='ball'><div class='redline'></div> <div class='dot3'></div> </div><div class = 'ball2'></div></div><button onclick = 'DoAnimation();'>Please click here for animation!</button>,1,testing.6,testing,The green circle,does not wug.,AnotB
4462,NA,,html-button-delay-response,23,211908,0.0-23.0,lhn2nb4fwo,wug=upward,,<div class='container2'><div class='ball'><div class='redline'></div> <div class='wug1b'></div><div class='wug2b'></div><div class='dot3b'></div><div class='wug4b'></div> </div><div class = 'ball2'></div></div><button onclick = 'DoAnimation();'>Please click here for animation!</button>,0,testing.17,testing,Every green circle,wugs.,all_true_existential
5831,NA,,html-button-delay-response,24,218241,0.0-24.0,lhn2nb4fwo,wug=upward,,<div class='container2'><div class='ball'><div class='redline'></div> <div class='wug1b'></div><div class='wug2b'></div><div class='wug3b'></div><div class='wug4b'></div> </div><div class = 'ball2'></div></div><button onclick = 'DoAnimation();'>Please click here for animation!</button>,0,testing.13,testing,Every green circle,wugs.,all_true_universal
5535,NA,,html-button-delay-response,25,224278,0.0-25.0,lhn2nb4fwo,wug=upward,,<div class='container2'><div class='ball'><div class='redline'></div> <div class='wug1a'></div><div class='dot2a'></div><div class='wug3a'></div><div class='wug4a'></div> </div><div class = 'ball2'></div></div><button onclick = 'DoAnimation();'>Please click here for animation!</button>,0,testing.18,testing,None of the green circles,wugs.,none_true_existential
4416,NA,,html-button-delay-response,26,229196,0.0-26.0,lhn2nb4fwo,wug=upward,,<div class='container2'><div class='ball'><div class='redline'></div> <div class='dot1a'></div><div class='dot2a'></div><div class='dot3b'></div><div class='dot4b'></div> </div><div class = 'ball2'></div></div><button onclick = 'DoAnimation();'>Please click here for animation!</button>,0,testing.19,testing,None of the green circles,wugs.,none_true_no_projection
5005,NA,,html-button-delay-response,27,234701,0.0-27.0,lhn2nb4fwo,wug=upward,,<div class='container2'><div class='ball'><div class='redline'></div> <div class='dot7'></div><div class='dot8'></div><div class='dot5'></div><div class='dot6'></div> </div><div class = 'ball2'></div></div><button onclick = 'DoAnimation();'>Please click here for animation!</button>,0,testing.20,testing,Every green circles,wugs.,all_true_no_projection
3824,NA,,html-button-delay-response,28,239027,0.0-28.0,lhn2nb4fwo,wug=upward,,<div class='container2'><div class='ball'><div class='redline'></div> <div class='wug1a'></div><div class='wug2a'></div><div class='wug3a'></div><div class='wug4a'></div> </div><div class = 'ball2'></div></div><button onclick = 'DoAnimation();'>Please click here for animation!</button>,0,testing.15,testing,None of the green circles,wugs.,none_true_universal
3782,NA,,html-button-delay-response,29,243309,0.0-29.0,lhn2nb4fwo,wug=upward,,<div class='container2'><div class='ball'><div class='redline'></div> <div class='wug1b'></div><div class='wug2b'></div><div class='wug3a'></div><div class='wug4a'></div> </div><div class = 'ball2'></div></div><button onclick = 'DoAnimation();'>Please click here for animation!</button>,1,testing.14,testing,Every green circle,wugs.,all_false
3893,NA,,html-button-delay-response,30,247704,0.0-30.0,lhn2nb4fwo,wug=upward,,<div class='container2'><div class='ball'><div class='redline'></div> <div class='wug1a'></div><div class='wug2b'></div><div class='wug3a'></div><div class='wug4b'></div> </div><div class = 'ball2'></div></div><button onclick = 'DoAnimation();'>Please click here for animation!</button>,1,testing.16,testing,None of the green circles,wugs.,none_false
25963,1ug,demo.1,survey-dropdown,31,274169,0.0-31.0,lhn2nb4fwo,wug=upward,,,,,,,,
25963,1ug,demo.2,survey-dropdown,31,274169,0.0-31.0,lhn2nb4fwo,wug=upward,,,,,,,,
25963,male,demo.3,survey-dropdown,31,274169,0.0-31.0,lhn2nb4fwo,wug=upward,,,,,,,,
25963,-20,demo.4,survey-dropdown,31,274169,0.0-31.0,lhn2nb4fwo,wug=upward,,,,,,,,
6637,5d4699cbda9cb60015aa45f7,ProlificID,survey-text,0,6639,0.0-0.0,bac500mb7r,control,,,,,,,,
21935,NA,instructions,instructions,1,28575,0.0-1.0,bac500mb7r,control,"[{""page_index"":0,""viewing_time"":21933}]",,,,,,,
16049,NA,,html-button-delay-response,2,44627,0.0-2.0,bac500mb7r,control,,<div class='container2'><div class='ball'><div class='redline'></div> <div class='wug4b'></div> </div><div class = 'ball2'></div></div><button onclick = 'DoAnimation();'>Please click here for animation!</button>,1,testing.12,testing,The green circle,does not move from red upward.,AnotB
7680,NA,,html-button-delay-response,3,52809,0.0-3.0,bac500mb7r,control,,<div class='container2'><div class='ball'><div class='redline'></div> <div class='wug3b'></div> </div><div class = 'ball2'></div></div><button onclick = 'DoAnimation();'>Please click here for animation!</button>,1,testing.11,testing,The green circle,does not move from red upward.,AnotB
4170,NA,,html-button-delay-response,4,57481,0.0-4.0,bac500mb7r,control,,<div class='container2'><div class='ball'><div class='redline'></div> <div class='dot3'></div> </div><div class = 'ball2'></div></div><button onclick = 'DoAnimation();'>Please click here for animation!</button>,1,testing.7,testing,The green circle,moves from red upward.,notAB
6242,NA,,html-button-delay-response,5,64225,0.0-5.0,bac500mb7r,control,,<div class='container2'><div class='ball'><div class='redline'></div> <div class='wug4'></div> </div><div class = 'ball2'></div></div><button onclick = 'DoAnimation();'>Please click here for animation!</button>,1,testing.4,testing,The green circle,does not move from red upward.,AB
7674,NA,,html-button-delay-response,6,72401,0.0-6.0,bac500mb7r,control,,<div class='container2'><div class='ball'><div class='redline'></div> <div class='dot1a'></div> </div><div class = 'ball2'></div></div><button onclick = 'DoAnimation();'>Please click here for animation!</button>,1,testing.15,testing,The green circle,does not move from red upward.,notAnotB
4381,NA,,html-button-delay-response,7,77285,0.0-7.0,bac500mb7r,control,,<div class='container2'><div class='ball'><div class='redline'></div> <div class='wug2'></div> </div><div class = 'ball2'></div></div><button onclick = 'DoAnimation();'>Please click here for animation!</button>,1,testing.2,testing,The green circle,does not move from red upward.,AB
5334,NA,,html-button-delay-response,8,83121,0.0-8.0,bac500mb7r,control,,<div class='container2'><div class='ball'><div class='redline'></div> <div class='dot2a'></div> </div><div class = 'ball2'></div></div><button onclick = 'DoAnimation();'>Please click here for animation!</button>,1,testing.13,testing,The green circle,moves from red upward.,notAnotB
3578,NA,,html-button-delay-response,9,87201,0.0-9.0,bac500mb7r,control,,<div class='container2'><div class='ball'><div class='redline'></div> <div class='dot1'></div> </div><div class = 'ball2'></div></div><button onclick = 'DoAnimation();'>Please click here for animation!</button>,1,testing.5,testing,The green circle,moves from red upward.,notAB
4945,NA,,html-button-delay-response,10,92649,0.0-10.0,bac500mb7r,control,,<div class='container2'><div class='ball'><div class='redline'></div> <div class='wug1'></div> </div><div class = 'ball2'></div></div><button onclick = 'DoAnimation();'>Please click here for animation!</button>,1,testing.1,testing,The green circle,moves from red upward.,AB
3652,NA,,html-button-delay-response,11,96804,0.0-11.0,bac500mb7r,control,,<div class='container2'><div class='ball'><div class='redline'></div> <div class='wug2b'></div> </div><div class = 'ball2'></div></div><button onclick = 'DoAnimation();'>Please click here for animation!</button>,1,testing.10,testing,The green circle,moves from red upward.,AnotB
3882,NA,,html-button-delay-response,12,101189,0.0-12.0,bac500mb7r,control,,<div class='container2'><div class='ball'><div class='redline'></div> <div class='dot4'></div> </div><div class = 'ball2'></div></div><button onclick = 'DoAnimation();'>Please click here for animation!</button>,1,testing.8,testing,The green circle,does not move from red upward.,notAB
3401,NA,,html-button-delay-response,13,105093,0.0-13.0,bac500mb7r,control,,<div class='container2'><div class='ball'><div class='redline'></div> <div class='wug3'></div> </div><div class = 'ball2'></div></div><button onclick = 'DoAnimation();'>Please click here for animation!</button>,1,testing.3,testing,The green circle,moves from red upward.,AB
3786,NA,,html-button-delay-response,14,109389,0.0-14.0,bac500mb7r,control,,<div class='container2'><div class='ball'><div class='redline'></div> <div class='dot2'></div> </div><div class = 'ball2'></div></div><button onclick = 'DoAnimation();'>Please click here for animation!</button>,1,testing.6,testing,The green circle,does not move from red upward.,notAB
3123,NA,,html-button-delay-response,15,113013,0.0-15.0,bac500mb7r,control,,<div class='container2'><div class='ball'><div class='redline'></div> <div class='dot4a'></div> </div><div class = 'ball2'></div></div><button onclick = 'DoAnimation();'>Please click here for animation!</button>,1,testing.16,testing,The green circle,does not move from red upward.,notAnotB
3062,NA,,html-button-delay-response,16,116577,0.0-16.0,bac500mb7r,control,,<div class='container2'><div class='ball'><div class='redline'></div> <div class='wug1b'></div> </div><div class = 'ball2'></div></div><button onclick = 'DoAnimation();'>Please click here for animation!</button>,1,testing.9,testing,The green circle,moves from red upward.,AnotB
2826,NA,,html-button-delay-response,17,119905,0.0-17.0,bac500mb7r,control,,<div class='container2'><div class='ball'><div class='redline'></div> <div class='dot3a'></div> </div><div class = 'ball2'></div></div><button onclick = 'DoAnimation();'>Please click here for animation!</button>,1,testing.14,testing,The green circle,moves from red upward.,notAnotB
3520,NA,,html-button-delay-response,18,123929,0.0-18.0,bac500mb7r,control,,<div class='container2'><div class='ball'><div class='redline'></div> <div class='wug1a'></div><div class='dot2a'></div><div class='wug3a'></div><div class='wug4a'></div> </div><div class = 'ball2'></div></div><button onclick = 'DoAnimation();'>Please click here for animation!</button>,1,testing.18,testing,None of the green circles,moves from red upward.,none_true_existential
6138,NA,,html-button-delay-response,19,130569,0.0-19.0,bac500mb7r,control,,<div class='container2'><div class='ball'><div class='redline'></div> <div class='dot7'></div><div class='dot8'></div><div class='dot5'></div><div class='dot6'></div> </div><div class = 'ball2'></div></div><button onclick = 'DoAnimation();'>Please click here for animation!</button>,1,testing.20,testing,Every green circles,moves from red upward.,all_true_no_projection
3426,NA,,html-button-delay-response,20,134497,0.0-20.0,bac500mb7r,control,,<div class='container2'><div class='ball'><div class='redline'></div> <div class='wug1b'></div><div class='wug2b'></div><div class='wug3b'></div><div class='wug4b'></div> </div><div class = 'ball2'></div></div><button onclick = 'DoAnimation();'>Please click here for animation!</button>,1,testing.13,testing,Every green circle,moves from red upward.,all_true_universal
3134,NA,,html-button-delay-response,21,138133,0.0-21.0,bac500mb7r,control,,<div class='container2'><div class='ball'><div class='redline'></div> <div class='wug1b'></div><div class='wug2b'></div><div class='wug3a'></div><div class='wug4a'></div> </div><div class = 'ball2'></div></div><button onclick = 'DoAnimation();'>Please click here for animation!</button>,1,testing.14,testing,Every green circle,moves from red upward.,all_false
2937,NA,,html-button-delay-response,22,141573,0.0-22.0,bac500mb7r,control,,<div class='container2'><div class='ball'><div class='redline'></div> <div class='wug1b'></div><div class='wug2b'></div><div class='dot3b'></div><div class='wug4b'></div> </div><div class = 'ball2'></div></div><button onclick = 'DoAnimation();'>Please click here for animation!</button>,1,testing.17,testing,Every green circle,moves from red upward.,all_true_existential
3378,NA,,html-button-delay-response,23,145453,0.0-23.0,bac500mb7r,control,,<div class='container2'><div class='ball'><div class='redline'></div> <div class='wug1a'></div><div class='wug2b'></div><div class='wug3a'></div><div class='wug4b'></div> </div><div class = 'ball2'></div></div><button onclick = 'DoAnimation();'>Please click here for animation!</button>,1,testing.16,testing,None of the green circles,moves from red upward.,none_false
3182,NA,,html-button-delay-response,24,149137,0.0-24.0,bac500mb7r,control,,<div class='container2'><div class='ball'><div class='redline'></div> <div class='dot1a'></div><div class='dot2a'></div><div class='dot3b'></div><div class='dot4b'></div> </div><div class = 'ball2'></div></div><button onclick = 'DoAnimation();'>Please click here for animation!</button>,1,testing.19,testing,None of the green circles,moves from red upward.,none_true_no_projection
2826,NA,,html-button-delay-response,25,152465,0.0-25.0,bac500mb7r,control,,<div class='container2'><div class='ball'><div class='redline'></div> <div class='wug1a'></div><div class='wug2a'></div><div class='wug3a'></div><div class='wug4a'></div> </div><div class = 'ball2'></div></div><button onclick = 'DoAnimation();'>Please click here for animation!</button>,1,testing.15,testing,None of the green circles,moves from red upward.,none_true_universal
75492,1ug,demo.1,survey-dropdown,26,228464,0.0-26.0,bac500mb7r,control,,,,,,,,
75492,none,demo.2,survey-dropdown,26,228464,0.0-26.0,bac500mb7r,control,,,,,,,,
75492,female,demo.3,survey-dropdown,26,228464,0.0-26.0,bac500mb7r,control,,,,,,,,
75492,55-64,demo.4,survey-dropdown,26,228464,0.0-26.0,bac500mb7r,control,,,,,,,,
8042,56a896fa7f2472000c93768d,ProlificID,survey-text,0,8048,0.0-0.0,4v2to62alt,wug=upward,,,,,,,,
4234,NA,instructions,instructions,1,12288,0.0-1.0,4v2to62alt,wug=upward,"[{""page_index"":0,""viewing_time"":4225}]",,,,,,,
10631,NA,,html-button-delay-response,2,22928,0.0-2.0,4v2to62alt,wug=upward,,<div class='container'><div class='ball_test'><div class='redline'></div> <div class='wug1b'></div></div></div></div><button onclick = 'DoAnimation();'>Please click here for animation!</button>,0,teaching.5,teaching,The green circle,,
9752,NA,,html-button-delay-response,3,33185,0.0-3.0,4v2to62alt,wug=upward,,<div class='container'><div class='ball_test'><div class='redline'></div> <div class='wug2'></div></div></div></div><button onclick = 'DoAnimation();'>Please click here for animation!</button>,0,teaching.2,teaching,The green circle,,
7624,NA,,html-button-delay-response,4,41313,0.0-4.0,4v2to62alt,wug=upward,,<div class='container'><div class='ball_test'><div class='redline'></div> <div class='wug4b'></div></div></div></div><button onclick = 'DoAnimation();'>Please click here for animation!</button>,0,teaching.8,teaching,The green circle,,
6935,NA,,html-button-delay-response,5,48752,0.0-5.0,4v2to62alt,wug=upward,,<div class='container'><div class='ball_test'><div class='redline'></div> <div class='wug3b'></div></div></div></div><button onclick = 'DoAnimation();'>Please click here for animation!</button>,0,teaching.7,teaching,The green circle,,
4562,NA,,html-button-delay-response,6,53818,0.0-6.0,4v2to62alt,wug=upward,,<div class='container'><div class='ball_test'><div class='redline'></div> <div class='wug2b'></div></div></div></div><button onclick = 'DoAnimation();'>Please click here for animation!</button>,0,teaching.6,teaching,The green circle,,
6511,NA,,html-button-delay-response,7,60831,0.0-7.0,4v2to62alt,wug=upward,,<div class='container'><div class='ball_test'><div class='redline'></div> <div class='wug1'></div></div></div></div><button onclick = 'DoAnimation();'>Please click here for animation!</button>,0,teaching.1,teaching,The green circle,,
7229,NA,,html-button-delay-response,8,68564,0.0-8.0,4v2to62alt,wug=upward,,<div class='container'><div class='ball_test'><div class='redline'></div> <div class='wug3'></div></div></div></div><button onclick = 'DoAnimation();'>Please click here for animation!</button>,0,teaching.3,teaching,The green circle,,
7398,NA,,html-button-delay-response,9,76466,0.0-9.0,4v2to62alt,wug=upward,,<div class='container'><div class='ball_test'><div class='redline'></div> <div class='wug4'></div></div></div></div><button onclick = 'DoAnimation();'>Please click here for animation!</button>,0,teaching.4,teaching,The green circle,,
22164,NA,break,html-button-response,10,99135,0.0-10.0,4v2to62alt,wug=upward,,"<p style='text-align:center'>Now, let's see how <b>you</b> use <i>wug</i>!</p> <p style='text-align:center'> You will see two animations but only one of them is visible, the other hidden.  Your task is to decide whether the sentence you will see describes the visible animation or the hidden animation. You should choose the hidden scenario if you consider the visible one inappropriate given the sentence you will see. </p>",0,,,,,
8319,NA,,html-button-delay-response,11,107457,0.0-11.0,4v2to62alt,wug=upward,,<div class='container2'><div class='ball'><div class='redline'></div> <div class='wug1'></div> </div><div class = 'ball2'></div></div><button onclick = 'DoAnimation();'>Please click here for animation!</button>,0,testing.1,testing,The green circle,does not wug.,AB
4056,NA,,html-button-delay-response,12,112017,0.0-12.0,4v2to62alt,wug=upward,,<div class='container2'><div class='ball'><div class='redline'></div> <div class='wug2'></div> </div><div class = 'ball2'></div></div><button onclick = 'DoAnimation();'>Please click here for animation!</button>,0,testing.2,testing,The green circle,wugs.,AB
4449,NA,,html-button-delay-response,13,116970,0.0-13.0,4v2to62alt,wug=upward,,<div class='container2'><div class='ball'><div class='redline'></div> <div class='wug3b'></div> </div><div class = 'ball2'></div></div><button onclick = 'DoAnimation();'>Please click here for animation!</button>,1,testing.3,testing,The green circle,does not wug.,notAB
4108,NA,,html-button-delay-response,14,121582,0.0-14.0,4v2to62alt,wug=upward,,<div class='container2'><div class='ball'><div class='redline'></div> <div class='wug4b'></div> </div><div class = 'ball2'></div></div><button onclick = 'DoAnimation();'>Please click here for animation!</button>,1,testing.4,testing,The green circle,wugs.,notAB
4951,NA,,html-button-delay-response,15,127036,0.0-15.0,4v2to62alt,wug=upward,,<div class='container2'><div class='ball'><div class='redline'></div> <div class='dot3'></div> </div><div class = 'ball2'></div></div><button onclick = 'DoAnimation();'>Please click here for animation!</button>,0,testing.6,testing,The green circle,does not wug.,AnotB
3646,NA,,html-button-delay-response,16,131187,0.0-16.0,4v2to62alt,wug=upward,,<div class='container2'><div class='ball'><div class='redline'></div> <div class='dot1a'></div> </div><div class = 'ball2'></div></div><button onclick = 'DoAnimation();'>Please click here for animation!</button>,1,testing.11,testing,The green circle,wugs.,notAnotB
3981,NA,,html-button-delay-response,17,135672,0.0-17.0,4v2to62alt,wug=upward,,<div class='container2'><div class='ball'><div class='redline'></div> <div class='dot2a'></div> </div><div class = 'ball2'></div></div><button onclick = 'DoAnimation();'>Please click here for animation!</button>,1,testing.9,testing,The green circle,wugs.,notAnotB
8893,NA,,html-button-delay-response,18,145071,0.0-18.0,4v2to62alt,wug=upward,,<div class='container2'><div class='ball'><div class='redline'></div> <div class='dot1'></div> </div><div class = 'ball2'></div></div><button onclick = 'DoAnimation();'>Please click here for animation!</button>,0,testing.7,testing,The green circle,wugs.,AnotB
3646,NA,,html-button-delay-response,19,149221,0.0-19.0,4v2to62alt,wug=upward,,<div class='container2'><div class='ball'><div class='redline'></div> <div class='dot4a'></div> </div><div class = 'ball2'></div></div><button onclick = 'DoAnimation();'>Please click here for animation!</button>,1,testing.12,testing,The green circle,does not wug.,notAnotB
5666,NA,,html-button-delay-response,20,155390,0.0-20.0,4v2to62alt,wug=upward,,<div class='container2'><div class='ball'><div class='redline'></div> <div class='dot4'></div> </div><div class = 'ball2'></div></div><button onclick = 'DoAnimation();'>Please click here for animation!</button>,1,testing.8,testing,The green circle,does not wug.,AnotB
6121,NA,,html-button-delay-response,21,162016,0.0-21.0,4v2to62alt,wug=upward,,<div class='container2'><div class='ball'><div class='redline'></div> <div class='dot3a'></div> </div><div class = 'ball2'></div></div><button onclick = 'DoAnimation();'>Please click here for animation!</button>,0,testing.10,testing,The green circle,does not wug.,notAnotB
4799,NA,,html-button-delay-response,22,167319,0.0-22.0,4v2to62alt,wug=upward,,<div class='container2'><div class='ball'><div class='redline'></div> <div class='dot2'></div> </div><div class = 'ball2'></div></div><button onclick = 'DoAnimation();'>Please click here for animation!</button>,0,testing.5,testing,The green circle,wugs.,AnotB
7347,NA,,html-button-delay-response,23,175170,0.0-23.0,4v2to62alt,wug=upward,,<div class='container2'><div class='ball'><div class='redline'></div> <div class='wug1a'></div><div class='dot2a'></div><div class='wug3a'></div><div class='wug4a'></div> </div><div class = 'ball2'></div></div><button onclick = 'DoAnimation();'>Please click here for animation!</button>,1,testing.18,testing,None of the green circles,wugs.,none_true_existential
4564,NA,,html-button-delay-response,24,180240,0.0-24.0,4v2to62alt,wug=upward,,<div class='container2'><div class='ball'><div class='redline'></div> <div class='dot7'></div><div class='dot8'></div><div class='dot5'></div><div class='dot6'></div> </div><div class = 'ball2'></div></div><button onclick = 'DoAnimation();'>Please click here for animation!</button>,0,testing.20,testing,Every green circles,wugs.,all_true_no_projection
4542,NA,,html-button-delay-response,25,185286,0.0-25.0,4v2to62alt,wug=upward,,<div class='container2'><div class='ball'><div class='redline'></div> <div class='dot1a'></div><div class='dot2a'></div><div class='dot3b'></div><div class='dot4b'></div> </div><div class = 'ball2'></div></div><button onclick = 'DoAnimation();'>Please click here for animation!</button>,0,testing.19,testing,None of the green circles,wugs.,none_true_no_projection
7570,NA,,html-button-delay-response,26,193361,0.0-26.0,4v2to62alt,wug=upward,,<div class='container2'><div class='ball'><div class='redline'></div> <div class='wug1a'></div><div class='wug2b'></div><div class='wug3a'></div><div class='wug4b'></div> </div><div class = 'ball2'></div></div><button onclick = 'DoAnimation();'>Please click here for animation!</button>,1,testing.16,testing,None of the green circles,wugs.,none_false
4941,NA,,html-button-delay-response,27,198806,0.0-27.0,4v2to62alt,wug=upward,,<div class='container2'><div class='ball'><div class='redline'></div> <div class='wug1b'></div><div class='wug2b'></div><div class='wug3b'></div><div class='wug4b'></div> </div><div class = 'ball2'></div></div><button onclick = 'DoAnimation();'>Please click here for animation!</button>,0,testing.13,testing,Every green circle,wugs.,all_true_universal
4028,NA,,html-button-delay-response,28,203342,0.0-28.0,4v2to62alt,wug=upward,,<div class='container2'><div class='ball'><div class='redline'></div> <div class='wug1a'></div><div class='wug2a'></div><div class='wug3a'></div><div class='wug4a'></div> </div><div class = 'ball2'></div></div><button onclick = 'DoAnimation();'>Please click here for animation!</button>,0,testing.15,testing,None of the green circles,wugs.,none_true_universal
3314,NA,,html-button-delay-response,29,207159,0.0-29.0,4v2to62alt,wug=upward,,<div class='container2'><div class='ball'><div class='redline'></div> <div class='wug1b'></div><div class='wug2b'></div><div class='dot3b'></div><div class='wug4b'></div> </div><div class = 'ball2'></div></div><button onclick = 'DoAnimation();'>Please click here for animation!</button>,0,testing.17,testing,Every green circle,wugs.,all_true_existential
3164,NA,,html-button-delay-response,30,210826,0.0-30.0,4v2to62alt,wug=upward,,<div class='container2'><div class='ball'><div class='redline'></div> <div class='wug1b'></div><div class='wug2b'></div><div class='wug3a'></div><div class='wug4a'></div> </div><div class = 'ball2'></div></div><button onclick = 'DoAnimation();'>Please click here for animation!</button>,1,testing.14,testing,Every green circle,wugs.,all_false
18901,none,demo.1,survey-dropdown,31,230241,0.0-31.0,4v2to62alt,wug=upward,,,,,,,,
18901,none,demo.2,survey-dropdown,31,230241,0.0-31.0,4v2to62alt,wug=upward,,,,,,,,
18901,female,demo.3,survey-dropdown,31,230241,0.0-31.0,4v2to62alt,wug=upward,,,,,,,,
18901,45-54,demo.4,survey-dropdown,31,230241,0.0-31.0,4v2to62alt,wug=upward,,,,,,,,
4650,5df3c01761b48a295ffba48f,ProlificID,survey-text,0,4656,0.0-0.0,y4tky9tqz0,wug=red,,,,,,,,
3988,NA,instructions,instructions,1,8647,0.0-1.0,y4tky9tqz0,wug=red,"[{""page_index"":0,""viewing_time"":3986}]",,,,,,,
11402,NA,,html-button-delay-response,2,20056,0.0-2.0,y4tky9tqz0,wug=red,,<div class='container'><div class='ball_test'><div class='redline'></div> <div class='wug2'></div></div></div></div><button onclick = 'DoAnimation();'>Please click here for animation!</button>,0,teaching.2,teaching,The green circle,,
12848,NA,,html-button-delay-response,3,33408,0.0-3.0,y4tky9tqz0,wug=red,,<div class='container'><div class='ball_test'><div class='redline'></div> <div class='dot1'></div></div></div></div><button onclick = 'DoAnimation();'>Please click here for animation!</button>,0,teaching.7,teaching,The green circle,,
7559,NA,,html-button-delay-response,4,41484,0.0-4.0,y4tky9tqz0,wug=red,,<div class='container'><div class='ball_test'><div class='redline'></div> <div class='wug4'></div></div></div></div><button onclick = 'DoAnimation();'>Please click here for animation!</button>,0,teaching.4,teaching,The green circle,,
11160,NA,,html-button-delay-response,5,53151,0.0-5.0,y4tky9tqz0,wug=red,,<div class='container'><div class='ball_test'><div class='redline'></div> <div class='dot2'></div></div></div></div><button onclick = 'DoAnimation();'>Please click here for animation!</button>,0,teaching.5,teaching,The green circle,,
14921,NA,,html-button-delay-response,6,68580,0.0-6.0,y4tky9tqz0,wug=red,,<div class='container'><div class='ball_test'><div class='redline'></div> <div class='dot3'></div></div></div></div><button onclick = 'DoAnimation();'>Please click here for animation!</button>,0,teaching.6,teaching,The green circle,,
10581,NA,,html-button-delay-response,7,79669,0.0-7.0,y4tky9tqz0,wug=red,,<div class='container'><div class='ball_test'><div class='redline'></div> <div class='dot4'></div></div></div></div><button onclick = 'DoAnimation();'>Please click here for animation!</button>,0,teaching.8,teaching,The green circle,,
9790,NA,,html-button-delay-response,8,89975,0.0-8.0,y4tky9tqz0,wug=red,,<div class='container'><div class='ball_test'><div class='redline'></div> <div class='wug3'></div></div></div></div><button onclick = 'DoAnimation();'>Please click here for animation!</button>,0,teaching.3,teaching,The green circle,,
8497,NA,,html-button-delay-response,9,98988,0.0-9.0,y4tky9tqz0,wug=red,,<div class='container'><div class='ball_test'><div class='redline'></div> <div class='wug1'></div></div></div></div><button onclick = 'DoAnimation();'>Please click here for animation!</button>,0,teaching.1,teaching,The green circle,,
10363,NA,break,html-button-response,10,109866,0.0-10.0,y4tky9tqz0,wug=red,,"<p style='text-align:center'>Now, let's see how <b>you</b> use <i>wug</i>!</p> <p style='text-align:center'> You will see two animations but only one of them is visible, the other hidden.  Your task is to decide whether the sentence you will see describes the visible animation or the hidden animation. You should choose the hidden scenario if you consider the visible one inappropriate given the sentence you will see. </p>",0,,,,,
6364,NA,,html-button-delay-response,11,116233,0.0-11.0,y4tky9tqz0,wug=red,,<div class='container2'><div class='ball'><div class='redline'></div> <div class='wug2'></div> </div><div class = 'ball2'></div></div><button onclick = 'DoAnimation();'>Please click here for animation!</button>,0,testing.2,testing,The green circle,wugs.,AB
5155,NA,,html-button-delay-response,12,121893,0.0-12.0,y4tky9tqz0,wug=red,,<div class='container2'><div class='ball'><div class='redline'></div> <div class='wug1'></div> </div><div class = 'ball2'></div></div><button onclick = 'DoAnimation();'>Please click here for animation!</button>,0,testing.1,testing,The green circle,does not wug.,AB
4773,NA,,html-button-delay-response,13,127170,0.0-13.0,y4tky9tqz0,wug=red,,<div class='container2'><div class='ball'><div class='redline'></div> <div class='dot3'></div> </div><div class = 'ball2'></div></div><button onclick = 'DoAnimation();'>Please click here for animation!</button>,1,testing.3,testing,The green circle,does not wug.,notAB
3184,NA,,html-button-delay-response,14,130858,0.0-14.0,y4tky9tqz0,wug=red,,<div class='container2'><div class='ball'><div class='redline'></div> <div class='dot4'></div> </div><div class = 'ball2'></div></div><button onclick = 'DoAnimation();'>Please click here for animation!</button>,1,testing.4,testing,The green circle,wugs.,notAB
6968,NA,,html-button-delay-response,15,138329,0.0-15.0,y4tky9tqz0,wug=red,,<div class='container2'><div class='ball'><div class='redline'></div> <div class='wug2b'></div> </div><div class = 'ball2'></div></div><button onclick = 'DoAnimation();'>Please click here for animation!</button>,1,testing.6,testing,The green circle,does not wug.,AnotB
5178,NA,,html-button-delay-response,16,144010,0.0-16.0,y4tky9tqz0,wug=red,,<div class='container2'><div class='ball'><div class='redline'></div> <div class='dot3a'></div> </div><div class = 'ball2'></div></div><button onclick = 'DoAnimation();'>Please click here for animation!</button>,1,testing.10,testing,The green circle,does not wug.,notAnotB
4446,NA,,html-button-delay-response,17,148971,0.0-17.0,y4tky9tqz0,wug=red,,<div class='container2'><div class='ball'><div class='redline'></div> <div class='dot4a'></div> </div><div class = 'ball2'></div></div><button onclick = 'DoAnimation();'>Please click here for animation!</button>,1,testing.12,testing,The green circle,does not wug.,notAnotB
4652,NA,,html-button-delay-response,18,154127,0.0-18.0,y4tky9tqz0,wug=red,,<div class='container2'><div class='ball'><div class='redline'></div> <div class='wug1b'></div> </div><div class = 'ball2'></div></div><button onclick = 'DoAnimation();'>Please click here for animation!</button>,1,testing.5,testing,The green circle,wugs.,AnotB
4275,NA,,html-button-delay-response,19,158916,0.0-19.0,y4tky9tqz0,wug=red,,<div class='container2'><div class='ball'><div class='redline'></div> <div class='wug3b'></div> </div><div class = 'ball2'></div></div><button onclick = 'DoAnimation();'>Please click here for animation!</button>,1,testing.7,testing,The green circle,wugs.,AnotB
7597,NA,,html-button-delay-response,20,167018,0.0-20.0,y4tky9tqz0,wug=red,,<div class='container2'><div class='ball'><div class='redline'></div> <div class='wug4b'></div> </div><div class = 'ball2'></div></div><button onclick = 'DoAnimation();'>Please click here for animation!</button>,0,testing.8,testing,The green circle,does not wug.,AnotB
8619,NA,,html-button-delay-response,21,176141,0.0-21.0,y4tky9tqz0,wug=red,,<div class='container2'><div class='ball'><div class='redline'></div> <div class='dot2a'></div> </div><div class = 'ball2'></div></div><button onclick = 'DoAnimation();'>Please click here for animation!</button>,1,testing.9,testing,The green circle,wugs.,notAnotB
3763,NA,,html-button-delay-response,22,180417,0.0-22.0,y4tky9tqz0,wug=red,,<div class='container2'><div class='ball'><div class='redline'></div> <div class='dot1a'></div> </div><div class = 'ball2'></div></div><button onclick = 'DoAnimation();'>Please click here for animation!</button>,1,testing.11,testing,The green circle,wugs.,notAnotB
8171,NA,,html-button-delay-response,23,189091,0.0-23.0,y4tky9tqz0,wug=red,,<div class='container2'><div class='ball'><div class='redline'></div> <div class='dot7'></div><div class='dot8'></div><div class='dot5'></div><div class='dot6'></div> </div><div class = 'ball2'></div></div><button onclick = 'DoAnimation();'>Please click here for animation!</button>,1,testing.20,testing,Every green circles,wugs.,all_true_no_projection
5166,NA,,html-button-delay-response,24,194761,0.0-24.0,y4tky9tqz0,wug=red,,<div class='container2'><div class='ball'><div class='redline'></div> <div class='wug1a'></div><div class='dot2a'></div><div class='wug3a'></div><div class='wug4a'></div> </div><div class = 'ball2'></div></div><button onclick = 'DoAnimation();'>Please click here for animation!</button>,0,testing.18,testing,None of the green circles,wugs.,none_true_existential
4999,NA,,html-button-delay-response,25,200264,0.0-25.0,y4tky9tqz0,wug=red,,<div class='container2'><div class='ball'><div class='redline'></div> <div class='wug1b'></div><div class='wug2b'></div><div class='dot3b'></div><div class='wug4b'></div> </div><div class = 'ball2'></div></div><button onclick = 'DoAnimation();'>Please click here for animation!</button>,1,testing.17,testing,Every green circle,wugs.,all_true_existential
5097,NA,,html-button-delay-response,26,205865,0.0-26.0,y4tky9tqz0,wug=red,,<div class='container2'><div class='ball'><div class='redline'></div> <div class='wug1b'></div><div class='wug2b'></div><div class='wug3b'></div><div class='wug4b'></div> </div><div class = 'ball2'></div></div><button onclick = 'DoAnimation();'>Please click here for animation!</button>,0,testing.13,testing,Every green circle,wugs.,all_true_universal
4864,NA,,html-button-delay-response,27,211233,0.0-27.0,y4tky9tqz0,wug=red,,<div class='container2'><div class='ball'><div class='redline'></div> <div class='dot1a'></div><div class='dot2a'></div><div class='dot3b'></div><div class='dot4b'></div> </div><div class = 'ball2'></div></div><button onclick = 'DoAnimation();'>Please click here for animation!</button>,0,testing.19,testing,None of the green circles,wugs.,none_true_no_projection
4211,NA,,html-button-delay-response,28,215947,0.0-28.0,y4tky9tqz0,wug=red,,<div class='container2'><div class='ball'><div class='redline'></div> <div class='wug1b'></div><div class='wug2b'></div><div class='wug3a'></div><div class='wug4a'></div> </div><div class = 'ball2'></div></div><button onclick = 'DoAnimation();'>Please click here for animation!</button>,1,testing.14,testing,Every green circle,wugs.,all_false
4761,NA,,html-button-delay-response,29,221211,0.0-29.0,y4tky9tqz0,wug=red,,<div class='container2'><div class='ball'><div class='redline'></div> <div class='wug1a'></div><div class='wug2a'></div><div class='wug3a'></div><div class='wug4a'></div> </div><div class = 'ball2'></div></div><button onclick = 'DoAnimation();'>Please click here for animation!</button>,0,testing.15,testing,None of the green circles,wugs.,none_true_universal
8260,NA,,html-button-delay-response,30,229975,0.0-30.0,y4tky9tqz0,wug=red,,<div class='container2'><div class='ball'><div class='redline'></div> <div class='wug1a'></div><div class='wug2b'></div><div class='wug3a'></div><div class='wug4b'></div> </div><div class = 'ball2'></div></div><button onclick = 'DoAnimation();'>Please click here for animation!</button>,1,testing.16,testing,None of the green circles,wugs.,none_false
26667,1g,demo.1,survey-dropdown,31,257153,0.0-31.0,y4tky9tqz0,wug=red,,,,,,,,
26667,none,demo.2,survey-dropdown,31,257153,0.0-31.0,y4tky9tqz0,wug=red,,,,,,,,
26667,male,demo.3,survey-dropdown,31,257153,0.0-31.0,y4tky9tqz0,wug=red,,,,,,,,
26667,45-54,demo.4,survey-dropdown,31,257153,0.0-31.0,y4tky9tqz0,wug=red,,,,,,,,
4085,597a2474d4e83700016c290f,ProlificID,survey-text,0,4090,0.0-0.0,uhx68hjk80,wug=upward,,,,,,,,
10091,NA,instructions,instructions,1,14182,0.0-1.0,uhx68hjk80,wug=upward,"[{""page_index"":0,""viewing_time"":10090}]",,,,,,,
13507,NA,,html-button-delay-response,2,27692,0.0-2.0,uhx68hjk80,wug=upward,,<div class='container'><div class='ball_test'><div class='redline'></div> <div class='wug2'></div></div></div></div><button onclick = 'DoAnimation();'>Please click here for animation!</button>,0,teaching.2,teaching,The green circle,,
8527,NA,,html-button-delay-response,3,36720,0.0-3.0,uhx68hjk80,wug=upward,,<div class='container'><div class='ball_test'><div class='redline'></div> <div class='wug1b'></div></div></div></div><button onclick = 'DoAnimation();'>Please click here for animation!</button>,0,teaching.5,teaching,The green circle,,
6531,NA,,html-button-delay-response,4,43753,0.0-4.0,uhx68hjk80,wug=upward,,<div class='container'><div class='ball_test'><div class='redline'></div> <div class='wug4'></div></div></div></div><button onclick = 'DoAnimation();'>Please click here for animation!</button>,0,teaching.4,teaching,The green circle,,
7176,NA,,html-button-delay-response,5,51432,0.0-5.0,uhx68hjk80,wug=upward,,<div class='container'><div class='ball_test'><div class='redline'></div> <div class='wug3'></div></div></div></div><button onclick = 'DoAnimation();'>Please click here for animation!</button>,0,teaching.3,teaching,The green circle,,
7401,NA,,html-button-delay-response,6,59336,0.0-6.0,uhx68hjk80,wug=upward,,<div class='container'><div class='ball_test'><div class='redline'></div> <div class='wug3b'></div></div></div></div><button onclick = 'DoAnimation();'>Please click here for animation!</button>,0,teaching.7,teaching,The green circle,,
5871,NA,,html-button-delay-response,7,65709,0.0-7.0,uhx68hjk80,wug=upward,,<div class='container'><div class='ball_test'><div class='redline'></div> <div class='wug2b'></div></div></div></div><button onclick = 'DoAnimation();'>Please click here for animation!</button>,0,teaching.6,teaching,The green circle,,
5789,NA,,html-button-delay-response,8,72000,0.0-8.0,uhx68hjk80,wug=upward,,<div class='container'><div class='ball_test'><div class='redline'></div> <div class='wug1'></div></div></div></div><button onclick = 'DoAnimation();'>Please click here for animation!</button>,0,teaching.1,teaching,The green circle,,
6721,NA,,html-button-delay-response,9,79222,0.0-9.0,uhx68hjk80,wug=upward,,<div class='container'><div class='ball_test'><div class='redline'></div> <div class='wug4b'></div></div></div></div><button onclick = 'DoAnimation();'>Please click here for animation!</button>,0,teaching.8,teaching,The green circle,,
35620,NA,break,html-button-response,10,115346,0.0-10.0,uhx68hjk80,wug=upward,,"<p style='text-align:center'>Now, let's see how <b>you</b> use <i>wug</i>!</p> <p style='text-align:center'> You will see two animations but only one of them is visible, the other hidden.  Your task is to decide whether the sentence you will see describes the visible animation or the hidden animation. You should choose the hidden scenario if you consider the visible one inappropriate given the sentence you will see. </p>",0,,,,,
13279,NA,,html-button-delay-response,11,128625,0.0-11.0,uhx68hjk80,wug=upward,,<div class='container2'><div class='ball'><div class='redline'></div> <div class='wug3b'></div> </div><div class = 'ball2'></div></div><button onclick = 'DoAnimation();'>Please click here for animation!</button>,0,testing.3,testing,The green circle,does not wug.,notAB
9494,NA,,html-button-delay-response,12,138621,0.0-12.0,uhx68hjk80,wug=upward,,<div class='container2'><div class='ball'><div class='redline'></div> <div class='wug2'></div> </div><div class = 'ball2'></div></div><button onclick = 'DoAnimation();'>Please click here for animation!</button>,0,testing.2,testing,The green circle,wugs.,AB
7595,NA,,html-button-delay-response,13,146718,0.0-13.0,uhx68hjk80,wug=upward,,<div class='container2'><div class='ball'><div class='redline'></div> <div class='wug4b'></div> </div><div class = 'ball2'></div></div><button onclick = 'DoAnimation();'>Please click here for animation!</button>,1,testing.4,testing,The green circle,wugs.,notAB
5710,NA,,html-button-delay-response,14,152931,0.0-14.0,uhx68hjk80,wug=upward,,<div class='container2'><div class='ball'><div class='redline'></div> <div class='wug1'></div> </div><div class = 'ball2'></div></div><button onclick = 'DoAnimation();'>Please click here for animation!</button>,1,testing.1,testing,The green circle,does not wug.,AB
7980,NA,,html-button-delay-response,15,161414,0.0-15.0,uhx68hjk80,wug=upward,,<div class='container2'><div class='ball'><div class='redline'></div> <div class='dot1'></div> </div><div class = 'ball2'></div></div><button onclick = 'DoAnimation();'>Please click here for animation!</button>,1,testing.7,testing,The green circle,wugs.,AnotB
7404,NA,,html-button-delay-response,16,169319,0.0-16.0,uhx68hjk80,wug=upward,,<div class='container2'><div class='ball'><div class='redline'></div> <div class='dot4'></div> </div><div class = 'ball2'></div></div><button onclick = 'DoAnimation();'>Please click here for animation!</button>,1,testing.8,testing,The green circle,does not wug.,AnotB
6089,NA,,html-button-delay-response,17,175911,0.0-17.0,uhx68hjk80,wug=upward,,<div class='container2'><div class='ball'><div class='redline'></div> <div class='dot2'></div> </div><div class = 'ball2'></div></div><button onclick = 'DoAnimation();'>Please click here for animation!</button>,1,testing.5,testing,The green circle,wugs.,AnotB
5012,NA,,html-button-delay-response,18,181424,0.0-18.0,uhx68hjk80,wug=upward,,<div class='container2'><div class='ball'><div class='redline'></div> <div class='dot4a'></div> </div><div class = 'ball2'></div></div><button onclick = 'DoAnimation();'>Please click here for animation!</button>,1,testing.12,testing,The green circle,does not wug.,notAnotB
6985,NA,,html-button-delay-response,19,188911,0.0-19.0,uhx68hjk80,wug=upward,,<div class='container2'><div class='ball'><div class='redline'></div> <div class='dot2a'></div> </div><div class = 'ball2'></div></div><button onclick = 'DoAnimation();'>Please click here for animation!</button>,1,testing.9,testing,The green circle,wugs.,notAnotB
5214,NA,,html-button-delay-response,20,194626,0.0-20.0,uhx68hjk80,wug=upward,,<div class='container2'><div class='ball'><div class='redline'></div> <div class='dot3a'></div> </div><div class = 'ball2'></div></div><button onclick = 'DoAnimation();'>Please click here for animation!</button>,1,testing.10,testing,The green circle,does not wug.,notAnotB
17328,NA,,html-button-delay-response,21,212457,0.0-21.0,uhx68hjk80,wug=upward,,<div class='container2'><div class='ball'><div class='redline'></div> <div class='dot3'></div> </div><div class = 'ball2'></div></div><button onclick = 'DoAnimation();'>Please click here for animation!</button>,1,testing.6,testing,The green circle,does not wug.,AnotB
6426,NA,,html-button-delay-response,22,219386,0.0-22.0,uhx68hjk80,wug=upward,,<div class='container2'><div class='ball'><div class='redline'></div> <div class='dot1a'></div> </div><div class = 'ball2'></div></div><button onclick = 'DoAnimation();'>Please click here for animation!</button>,1,testing.11,testing,The green circle,wugs.,notAnotB
6193,NA,,html-button-delay-response,23,226081,0.0-23.0,uhx68hjk80,wug=upward,,<div class='container2'><div class='ball'><div class='redline'></div> <div class='wug1b'></div><div class='wug2b'></div><div class='wug3a'></div><div class='wug4a'></div> </div><div class = 'ball2'></div></div><button onclick = 'DoAnimation();'>Please click here for animation!</button>,1,testing.14,testing,Every green circle,wugs.,all_false
7954,NA,,html-button-delay-response,24,234538,0.0-24.0,uhx68hjk80,wug=upward,,<div class='container2'><div class='ball'><div class='redline'></div> <div class='wug1a'></div><div class='dot2a'></div><div class='wug3a'></div><div class='wug4a'></div> </div><div class = 'ball2'></div></div><button onclick = 'DoAnimation();'>Please click here for animation!</button>,1,testing.18,testing,None of the green circles,wugs.,none_true_existential
6295,NA,,html-button-delay-response,25,241336,0.0-25.0,uhx68hjk80,wug=upward,,<div class='container2'><div class='ball'><div class='redline'></div> <div class='dot7'></div><div class='dot8'></div><div class='dot5'></div><div class='dot6'></div> </div><div class = 'ball2'></div></div><button onclick = 'DoAnimation();'>Please click here for animation!</button>,0,testing.20,testing,Every green circles,wugs.,all_true_no_projection
6099,NA,,html-button-delay-response,26,247936,0.0-26.0,uhx68hjk80,wug=upward,,<div class='container2'><div class='ball'><div class='redline'></div> <div class='wug1b'></div><div class='wug2b'></div><div class='dot3b'></div><div class='wug4b'></div> </div><div class = 'ball2'></div></div><button onclick = 'DoAnimation();'>Please click here for animation!</button>,0,testing.17,testing,Every green circle,wugs.,all_true_existential
6006,NA,,html-button-delay-response,27,254445,0.0-27.0,uhx68hjk80,wug=upward,,<div class='container2'><div class='ball'><div class='redline'></div> <div class='dot1a'></div><div class='dot2a'></div><div class='dot3b'></div><div class='dot4b'></div> </div><div class = 'ball2'></div></div><button onclick = 'DoAnimation();'>Please click here for animation!</button>,1,testing.19,testing,None of the green circles,wugs.,none_true_no_projection
4866,NA,,html-button-delay-response,28,259812,0.0-28.0,uhx68hjk80,wug=upward,,<div class='container2'><div class='ball'><div class='redline'></div> <div class='wug1a'></div><div class='wug2b'></div><div class='wug3a'></div><div class='wug4b'></div> </div><div class = 'ball2'></div></div><button onclick = 'DoAnimation();'>Please click here for animation!</button>,1,testing.16,testing,None of the green circles,wugs.,none_false
4547,NA,,html-button-delay-response,29,264862,0.0-29.0,uhx68hjk80,wug=upward,,<div class='container2'><div class='ball'><div class='redline'></div> <div class='wug1b'></div><div class='wug2b'></div><div class='wug3b'></div><div class='wug4b'></div> </div><div class = 'ball2'></div></div><button onclick = 'DoAnimation();'>Please click here for animation!</button>,0,testing.13,testing,Every green circle,wugs.,all_true_universal
5417,NA,,html-button-delay-response,30,270781,0.0-30.0,uhx68hjk80,wug=upward,,<div class='container2'><div class='ball'><div class='redline'></div> <div class='wug1a'></div><div class='wug2a'></div><div class='wug3a'></div><div class='wug4a'></div> </div><div class = 'ball2'></div></div><button onclick = 'DoAnimation();'>Please click here for animation!</button>,0,testing.15,testing,None of the green circles,wugs.,none_true_universal
29991,1ug,demo.1,survey-dropdown,31,301279,0.0-31.0,uhx68hjk80,wug=upward,,,,,,,,
29991,1ug,demo.2,survey-dropdown,31,301279,0.0-31.0,uhx68hjk80,wug=upward,,,,,,,,
29991,female,demo.3,survey-dropdown,31,301279,0.0-31.0,uhx68hjk80,wug=upward,,,,,,,,
29991,25-34,demo.4,survey-dropdown,31,301279,0.0-31.0,uhx68hjk80,wug=upward,,,,,,,,
7275,603e1fe6849f5c63a9997cf5,ProlificID,survey-text,0,7278,0.0-0.0,8do0byc4kl,no training,,,,,,,,
5351,NA,instructions,instructions,1,12630,0.0-1.0,8do0byc4kl,no training,"[{""page_index"":0,""viewing_time"":5350}]",,,,,,,
6040,NA,,html-button-delay-response,2,18674,0.0-2.0,8do0byc4kl,no training,,<div class='container'><div class='ball_test'><div class='redline'></div> <div class='wug1'></div></div></div></div><button onclick = 'DoAnimation();'>Please click here for animation!</button>,0,teaching.1,teaching,The green circle,,
3984,NA,,html-button-delay-response,3,23159,0.0-3.0,8do0byc4kl,no training,,<div class='container'><div class='ball_test'><div class='redline'></div> <div class='wug3'></div></div></div></div><button onclick = 'DoAnimation();'>Please click here for animation!</button>,0,teaching.3,teaching,The green circle,,
3306,NA,,html-button-delay-response,4,26967,0.0-4.0,8do0byc4kl,no training,,<div class='container'><div class='ball_test'><div class='redline'></div> <div class='wug4'></div></div></div></div><button onclick = 'DoAnimation();'>Please click here for animation!</button>,0,teaching.4,teaching,The green circle,,
3384,NA,,html-button-delay-response,5,30853,0.0-5.0,8do0byc4kl,no training,,<div class='container'><div class='ball_test'><div class='redline'></div> <div class='wug2'></div></div></div></div><button onclick = 'DoAnimation();'>Please click here for animation!</button>,0,teaching.2,teaching,The green circle,,
10883,NA,break,html-button-response,6,42238,0.0-6.0,8do0byc4kl,no training,,"<p style='text-align:center'>Now, let's see how <b>you</b> use <i>wug</i>!</p> <p style='text-align:center'> You will see two animations but only one of them is visible, the other hidden.  Your task is to decide whether the sentence you will see describes the visible animation or the hidden animation. You should choose the hidden scenario if you consider the visible one inappropriate given the sentence you will see. </p>",0,,,,,
9194,NA,,html-button-delay-response,7,51434,0.0-7.0,8do0byc4kl,no training,,<div class='container2'><div class='ball'><div class='redline'></div> <div class='wug1'></div> </div><div class = 'ball2'></div></div><button onclick = 'DoAnimation();'>Please click here for animation!</button>,1,testing.1,testing,The green circle,does not wug.,AB
30247,NA,,html-button-delay-response,8,82183,0.0-8.0,8do0byc4kl,no training,,<div class='container2'><div class='ball'><div class='redline'></div> <div class='wug3b'></div> </div><div class = 'ball2'></div></div><button onclick = 'DoAnimation();'>Please click here for animation!</button>,1,testing.3,testing,The green circle,does not wug.,notAB
3548,NA,,html-button-delay-response,9,86233,0.0-9.0,8do0byc4kl,no training,,<div class='container2'><div class='ball'><div class='redline'></div> <div class='wug4b'></div> </div><div class = 'ball2'></div></div><button onclick = 'DoAnimation();'>Please click here for animation!</button>,0,testing.4,testing,The green circle,wugs.,notAB
2883,NA,,html-button-delay-response,10,89618,0.0-10.0,8do0byc4kl,no training,,<div class='container2'><div class='ball'><div class='redline'></div> <div class='wug2'></div> </div><div class = 'ball2'></div></div><button onclick = 'DoAnimation();'>Please click here for animation!</button>,0,testing.2,testing,The green circle,wugs.,AB
4116,NA,,html-button-delay-response,11,94236,0.0-11.0,8do0byc4kl,no training,,<div class='container2'><div class='ball'><div class='redline'></div> <div class='dot2'></div> </div><div class = 'ball2'></div></div><button onclick = 'DoAnimation();'>Please click here for animation!</button>,1,testing.5,testing,The green circle,wugs.,AnotB
8553,NA,,html-button-delay-response,12,103291,0.0-12.0,8do0byc4kl,no training,,<div class='container2'><div class='ball'><div class='redline'></div> <div class='dot3a'></div> </div><div class = 'ball2'></div></div><button onclick = 'DoAnimation();'>Please click here for animation!</button>,0,testing.10,testing,The green circle,does not wug.,notAnotB
4135,NA,,html-button-delay-response,13,107927,0.0-13.0,8do0byc4kl,no training,,<div class='container2'><div class='ball'><div class='redline'></div> <div class='dot3'></div> </div><div class = 'ball2'></div></div><button onclick = 'DoAnimation();'>Please click here for animation!</button>,1,testing.6,testing,The green circle,does not wug.,AnotB
2670,NA,,html-button-delay-response,14,111101,0.0-14.0,8do0byc4kl,no training,,<div class='container2'><div class='ball'><div class='redline'></div> <div class='dot1a'></div> </div><div class = 'ball2'></div></div><button onclick = 'DoAnimation();'>Please click here for animation!</button>,0,testing.11,testing,The green circle,wugs.,notAnotB
4216,NA,,html-button-delay-response,15,115821,0.0-15.0,8do0byc4kl,no training,,<div class='container2'><div class='ball'><div class='redline'></div> <div class='dot4'></div> </div><div class = 'ball2'></div></div><button onclick = 'DoAnimation();'>Please click here for animation!</button>,1,testing.8,testing,The green circle,does not wug.,AnotB
3216,NA,,html-button-delay-response,16,119539,0.0-16.0,8do0byc4kl,no training,,<div class='container2'><div class='ball'><div class='redline'></div> <div class='dot4a'></div> </div><div class = 'ball2'></div></div><button onclick = 'DoAnimation();'>Please click here for animation!</button>,1,testing.12,testing,The green circle,does not wug.,notAnotB
2741,NA,,html-button-delay-response,17,122782,0.0-17.0,8do0byc4kl,no training,,<div class='container2'><div class='ball'><div class='redline'></div> <div class='dot2a'></div> </div><div class = 'ball2'></div></div><button onclick = 'DoAnimation();'>Please click here for animation!</button>,0,testing.9,testing,The green circle,wugs.,notAnotB
2810,NA,,html-button-delay-response,18,126094,0.0-18.0,8do0byc4kl,no training,,<div class='container2'><div class='ball'><div class='redline'></div> <div class='dot1'></div> </div><div class = 'ball2'></div></div><button onclick = 'DoAnimation();'>Please click here for animation!</button>,0,testing.7,testing,The green circle,wugs.,AnotB
3009,NA,,html-button-delay-response,19,129605,0.0-19.0,8do0byc4kl,no training,,<div class='container2'><div class='ball'><div class='redline'></div> <div class='wug1b'></div><div class='wug2b'></div><div class='dot3b'></div><div class='wug4b'></div> </div><div class = 'ball2'></div></div><button onclick = 'DoAnimation();'>Please click here for animation!</button>,0,testing.17,testing,Every green circle,wugs.,all_true_existential
3549,NA,,html-button-delay-response,20,133655,0.0-20.0,8do0byc4kl,no training,,<div class='container2'><div class='ball'><div class='redline'></div> <div class='wug1a'></div><div class='wug2b'></div><div class='wug3a'></div><div class='wug4b'></div> </div><div class = 'ball2'></div></div><button onclick = 'DoAnimation();'>Please click here for animation!</button>,1,testing.16,testing,None of the green circles,wugs.,none_false
3149,NA,,html-button-delay-response,21,137307,0.0-21.0,8do0byc4kl,no training,,<div class='container2'><div class='ball'><div class='redline'></div> <div class='wug1b'></div><div class='wug2b'></div><div class='wug3b'></div><div class='wug4b'></div> </div><div class = 'ball2'></div></div><button onclick = 'DoAnimation();'>Please click here for animation!</button>,0,testing.13,testing,Every green circle,wugs.,all_true_universal
37794,NA,,html-button-delay-response,22,175603,0.0-22.0,8do0byc4kl,no training,,<div class='container2'><div class='ball'><div class='redline'></div> <div class='dot7'></div><div class='dot8'></div><div class='dot5'></div><div class='dot6'></div> </div><div class = 'ball2'></div></div><button onclick = 'DoAnimation();'>Please click here for animation!</button>,0,testing.20,testing,Every green circles,wugs.,all_true_no_projection
3563,NA,,html-button-delay-response,23,179667,0.0-23.0,8do0byc4kl,no training,,<div class='container2'><div class='ball'><div class='redline'></div> <div class='wug1b'></div><div class='wug2b'></div><div class='wug3a'></div><div class='wug4a'></div> </div><div class = 'ball2'></div></div><button onclick = 'DoAnimation();'>Please click here for animation!</button>,1,testing.14,testing,Every green circle,wugs.,all_false
4684,NA,,html-button-delay-response,24,184854,0.0-24.0,8do0byc4kl,no training,,<div class='container2'><div class='ball'><div class='redline'></div> <div class='dot1a'></div><div class='dot2a'></div><div class='dot3b'></div><div class='dot4b'></div> </div><div class = 'ball2'></div></div><button onclick = 'DoAnimation();'>Please click here for animation!</button>,1,testing.19,testing,None of the green circles,wugs.,none_true_no_projection
4056,NA,,html-button-delay-response,25,189412,0.0-25.0,8do0byc4kl,no training,,<div class='container2'><div class='ball'><div class='redline'></div> <div class='wug1a'></div><div class='dot2a'></div><div class='wug3a'></div><div class='wug4a'></div> </div><div class = 'ball2'></div></div><button onclick = 'DoAnimation();'>Please click here for animation!</button>,0,testing.18,testing,None of the green circles,wugs.,none_true_existential
3211,NA,,html-button-delay-response,26,193125,0.0-26.0,8do0byc4kl,no training,,<div class='container2'><div class='ball'><div class='redline'></div> <div class='wug1a'></div><div class='wug2a'></div><div class='wug3a'></div><div class='wug4a'></div> </div><div class = 'ball2'></div></div><button onclick = 'DoAnimation();'>Please click here for animation!</button>,1,testing.15,testing,None of the green circles,wugs.,none_true_universal
26574,2+ug,demo.1,survey-dropdown,27,220205,0.0-27.0,8do0byc4kl,no training,,,,,,,,
26574,none,demo.2,survey-dropdown,27,220205,0.0-27.0,8do0byc4kl,no training,,,,,,,,
26574,male,demo.3,survey-dropdown,27,220205,0.0-27.0,8do0byc4kl,no training,,,,,,,,
26574,12-24,demo.4,survey-dropdown,27,220205,0.0-27.0,8do0byc4kl,no training,,,,,,,,
138146,5f86d47f938a8502a4443f19,ProlificID,survey-text,0,138148,0.0-0.0,d6h75ykzac,wug=red,,,,,,,,
1935,NA,instructions,instructions,1,140084,0.0-1.0,d6h75ykzac,wug=red,"[{""page_index"":0,""viewing_time"":1934}]",,,,,,,
6690,NA,,html-button-delay-response,2,146777,0.0-2.0,d6h75ykzac,wug=red,,<div class='container'><div class='ball_test'><div class='redline'></div> <div class='dot2'></div></div></div></div><button onclick = 'DoAnimation();'>Please click here for animation!</button>,0,teaching.5,teaching,The green circle,,
6005,NA,,html-button-delay-response,3,153284,0.0-3.0,d6h75ykzac,wug=red,,<div class='container'><div class='ball_test'><div class='redline'></div> <div class='wug3'></div></div></div></div><button onclick = 'DoAnimation();'>Please click here for animation!</button>,0,teaching.3,teaching,The green circle,,
5868,NA,,html-button-delay-response,4,159668,0.0-4.0,d6h75ykzac,wug=red,,<div class='container'><div class='ball_test'><div class='redline'></div> <div class='wug4'></div></div></div></div><button onclick = 'DoAnimation();'>Please click here for animation!</button>,0,teaching.4,teaching,The green circle,,
6365,NA,,html-button-delay-response,5,166548,0.0-5.0,d6h75ykzac,wug=red,,<div class='container'><div class='ball_test'><div class='redline'></div> <div class='dot4'></div></div></div></div><button onclick = 'DoAnimation();'>Please click here for animation!</button>,0,teaching.8,teaching,The green circle,,
5904,NA,,html-button-delay-response,6,172963,0.0-6.0,d6h75ykzac,wug=red,,<div class='container'><div class='ball_test'><div class='redline'></div> <div class='wug1'></div></div></div></div><button onclick = 'DoAnimation();'>Please click here for animation!</button>,0,teaching.1,teaching,The green circle,,
4889,NA,,html-button-delay-response,7,178356,0.0-7.0,d6h75ykzac,wug=red,,<div class='container'><div class='ball_test'><div class='redline'></div> <div class='dot1'></div></div></div></div><button onclick = 'DoAnimation();'>Please click here for animation!</button>,0,teaching.7,teaching,The green circle,,
3137,NA,,html-button-delay-response,8,181995,0.0-8.0,d6h75ykzac,wug=red,,<div class='container'><div class='ball_test'><div class='redline'></div> <div class='wug2'></div></div></div></div><button onclick = 'DoAnimation();'>Please click here for animation!</button>,0,teaching.2,teaching,The green circle,,
4600,NA,,html-button-delay-response,9,187097,0.0-9.0,d6h75ykzac,wug=red,,<div class='container'><div class='ball_test'><div class='redline'></div> <div class='dot3'></div></div></div></div><button onclick = 'DoAnimation();'>Please click here for animation!</button>,0,teaching.6,teaching,The green circle,,
5044,NA,break,html-button-response,10,192651,0.0-10.0,d6h75ykzac,wug=red,,"<p style='text-align:center'>Now, let's see how <b>you</b> use <i>wug</i>!</p> <p style='text-align:center'> You will see two animations but only one of them is visible, the other hidden.  Your task is to decide whether the sentence you will see describes the visible animation or the hidden animation. You should choose the hidden scenario if you consider the visible one inappropriate given the sentence you will see. </p>",0,,,,,
6110,NA,,html-button-delay-response,11,198763,0.0-11.0,d6h75ykzac,wug=red,,<div class='container2'><div class='ball'><div class='redline'></div> <div class='dot4'></div> </div><div class = 'ball2'></div></div><button onclick = 'DoAnimation();'>Please click here for animation!</button>,1,testing.4,testing,The green circle,wugs.,notAB
5286,NA,,html-button-delay-response,12,204560,0.0-12.0,d6h75ykzac,wug=red,,<div class='container2'><div class='ball'><div class='redline'></div> <div class='wug1'></div> </div><div class = 'ball2'></div></div><button onclick = 'DoAnimation();'>Please click here for animation!</button>,1,testing.1,testing,The green circle,does not wug.,AB
2919,NA,,html-button-delay-response,13,207988,0.0-13.0,d6h75ykzac,wug=red,,<div class='container2'><div class='ball'><div class='redline'></div> <div class='dot3'></div> </div><div class = 'ball2'></div></div><button onclick = 'DoAnimation();'>Please click here for animation!</button>,0,testing.3,testing,The green circle,does not wug.,notAB
2818,NA,,html-button-delay-response,14,211315,0.0-14.0,d6h75ykzac,wug=red,,<div class='container2'><div class='ball'><div class='redline'></div> <div class='wug2'></div> </div><div class = 'ball2'></div></div><button onclick = 'DoAnimation();'>Please click here for animation!</button>,0,testing.2,testing,The green circle,wugs.,AB
3373,NA,,html-button-delay-response,15,215203,0.0-15.0,d6h75ykzac,wug=red,,<div class='container2'><div class='ball'><div class='redline'></div> <div class='dot4a'></div> </div><div class = 'ball2'></div></div><button onclick = 'DoAnimation();'>Please click here for animation!</button>,1,testing.12,testing,The green circle,does not wug.,notAnotB
3985,NA,,html-button-delay-response,16,219691,0.0-16.0,d6h75ykzac,wug=red,,<div class='container2'><div class='ball'><div class='redline'></div> <div class='dot3a'></div> </div><div class = 'ball2'></div></div><button onclick = 'DoAnimation();'>Please click here for animation!</button>,0,testing.10,testing,The green circle,does not wug.,notAnotB
4255,NA,,html-button-delay-response,17,224447,0.0-17.0,d6h75ykzac,wug=red,,<div class='container2'><div class='ball'><div class='redline'></div> <div class='wug3b'></div> </div><div class = 'ball2'></div></div><button onclick = 'DoAnimation();'>Please click here for animation!</button>,0,testing.7,testing,The green circle,wugs.,AnotB
4225,NA,,html-button-delay-response,18,229187,0.0-18.0,d6h75ykzac,wug=red,,<div class='container2'><div class='ball'><div class='redline'></div> <div class='dot2a'></div> </div><div class = 'ball2'></div></div><button onclick = 'DoAnimation();'>Please click here for animation!</button>,1,testing.9,testing,The green circle,wugs.,notAnotB
3241,NA,,html-button-delay-response,19,232931,0.0-19.0,d6h75ykzac,wug=red,,<div class='container2'><div class='ball'><div class='redline'></div> <div class='dot1a'></div> </div><div class = 'ball2'></div></div><button onclick = 'DoAnimation();'>Please click here for animation!</button>,1,testing.11,testing,The green circle,wugs.,notAnotB
3946,NA,,html-button-delay-response,20,237380,0.0-20.0,d6h75ykzac,wug=red,,<div class='container2'><div class='ball'><div class='redline'></div> <div class='wug2b'></div> </div><div class = 'ball2'></div></div><button onclick = 'DoAnimation();'>Please click here for animation!</button>,1,testing.6,testing,The green circle,does not wug.,AnotB
2778,NA,,html-button-delay-response,21,240658,0.0-21.0,d6h75ykzac,wug=red,,<div class='container2'><div class='ball'><div class='redline'></div> <div class='wug4b'></div> </div><div class = 'ball2'></div></div><button onclick = 'DoAnimation();'>Please click here for animation!</button>,1,testing.8,testing,The green circle,does not wug.,AnotB
2380,NA,,html-button-delay-response,22,243543,0.0-22.0,d6h75ykzac,wug=red,,<div class='container2'><div class='ball'><div class='redline'></div> <div class='wug1b'></div> </div><div class = 'ball2'></div></div><button onclick = 'DoAnimation();'>Please click here for animation!</button>,0,testing.5,testing,The green circle,wugs.,AnotB
2996,NA,,html-button-delay-response,23,247043,0.0-23.0,d6h75ykzac,wug=red,,<div class='container2'><div class='ball'><div class='redline'></div> <div class='wug1b'></div><div class='wug2b'></div><div class='dot3b'></div><div class='wug4b'></div> </div><div class = 'ball2'></div></div><button onclick = 'DoAnimation();'>Please click here for animation!</button>,0,testing.17,testing,Every green circle,wugs.,all_true_existential
4290,NA,,html-button-delay-response,24,251834,0.0-24.0,d6h75ykzac,wug=red,,<div class='container2'><div class='ball'><div class='redline'></div> <div class='wug1a'></div><div class='wug2a'></div><div class='wug3a'></div><div class='wug4a'></div> </div><div class = 'ball2'></div></div><button onclick = 'DoAnimation();'>Please click here for animation!</button>,1,testing.15,testing,None of the green circles,wugs.,none_true_universal
2917,NA,,html-button-delay-response,25,255268,0.0-25.0,d6h75ykzac,wug=red,,<div class='container2'><div class='ball'><div class='redline'></div> <div class='wug1b'></div><div class='wug2b'></div><div class='wug3b'></div><div class='wug4b'></div> </div><div class = 'ball2'></div></div><button onclick = 'DoAnimation();'>Please click here for animation!</button>,0,testing.13,testing,Every green circle,wugs.,all_true_universal
3513,NA,,html-button-delay-response,26,259291,0.0-26.0,d6h75ykzac,wug=red,,<div class='container2'><div class='ball'><div class='redline'></div> <div class='wug1a'></div><div class='wug2b'></div><div class='wug3a'></div><div class='wug4b'></div> </div><div class = 'ball2'></div></div><button onclick = 'DoAnimation();'>Please click here for animation!</button>,1,testing.16,testing,None of the green circles,wugs.,none_false
5594,NA,,html-button-delay-response,27,265389,0.0-27.0,d6h75ykzac,wug=red,,<div class='container2'><div class='ball'><div class='redline'></div> <div class='dot1a'></div><div class='dot2a'></div><div class='dot3b'></div><div class='dot4b'></div> </div><div class = 'ball2'></div></div><button onclick = 'DoAnimation();'>Please click here for animation!</button>,1,testing.19,testing,None of the green circles,wugs.,none_true_no_projection
11177,NA,,html-button-delay-response,28,277081,0.0-28.0,d6h75ykzac,wug=red,,<div class='container2'><div class='ball'><div class='redline'></div> <div class='wug1a'></div><div class='dot2a'></div><div class='wug3a'></div><div class='wug4a'></div> </div><div class = 'ball2'></div></div><button onclick = 'DoAnimation();'>Please click here for animation!</button>,1,testing.18,testing,None of the green circles,wugs.,none_true_existential
3206,NA,,html-button-delay-response,29,280787,0.0-29.0,d6h75ykzac,wug=red,,<div class='container2'><div class='ball'><div class='redline'></div> <div class='wug1b'></div><div class='wug2b'></div><div class='wug3a'></div><div class='wug4a'></div> </div><div class = 'ball2'></div></div><button onclick = 'DoAnimation();'>Please click here for animation!</button>,0,testing.14,testing,Every green circle,wugs.,all_false
5789,NA,,html-button-delay-response,30,287091,0.0-30.0,d6h75ykzac,wug=red,,<div class='container2'><div class='ball'><div class='redline'></div> <div class='dot7'></div><div class='dot8'></div><div class='dot5'></div><div class='dot6'></div> </div><div class = 'ball2'></div></div><button onclick = 'DoAnimation();'>Please click here for animation!</button>,0,testing.20,testing,Every green circles,wugs.,all_true_no_projection
28617,none,demo.1,survey-dropdown,31,316213,0.0-31.0,d6h75ykzac,wug=red,,,,,,,,
28617,none,demo.2,survey-dropdown,31,316213,0.0-31.0,d6h75ykzac,wug=red,,,,,,,,
28617,male,demo.3,survey-dropdown,31,316213,0.0-31.0,d6h75ykzac,wug=red,,,,,,,,
28617,12-24,demo.4,survey-dropdown,31,316213,0.0-31.0,d6h75ykzac,wug=red,,,,,,,,
3804,5720b0c5fd3a5200133c8909,ProlificID,survey-text,0,3805,0.0-0.0,dm2e3wvzcs,control,,,,,,,,
21766,NA,instructions,instructions,1,25572,0.0-1.0,dm2e3wvzcs,control,"[{""page_index"":0,""viewing_time"":21765}]",,,,,,,
20847,NA,,html-button-delay-response,2,46421,0.0-2.0,dm2e3wvzcs,control,,<div class='container2'><div class='ball'><div class='redline'></div> <div class='dot3'></div> </div><div class = 'ball2'></div></div><button onclick = 'DoAnimation();'>Please click here for animation!</button>,1,testing.7,testing,The green circle,moves from red upward.,notAB
5595,NA,,html-button-delay-response,3,52518,0.0-3.0,dm2e3wvzcs,control,,<div class='container2'><div class='ball'><div class='redline'></div> <div class='wug1'></div> </div><div class = 'ball2'></div></div><button onclick = 'DoAnimation();'>Please click here for animation!</button>,0,testing.1,testing,The green circle,moves from red upward.,AB
7075,NA,,html-button-delay-response,4,60102,0.0-4.0,dm2e3wvzcs,control,,<div class='container2'><div class='ball'><div class='redline'></div> <div class='wug3b'></div> </div><div class = 'ball2'></div></div><button onclick = 'DoAnimation();'>Please click here for animation!</button>,0,testing.11,testing,The green circle,does not move from red upward.,AnotB
5262,NA,,html-button-delay-response,5,65866,0.0-5.0,dm2e3wvzcs,control,,<div class='container2'><div class='ball'><div class='redline'></div> <div class='dot3a'></div> </div><div class = 'ball2'></div></div><button onclick = 'DoAnimation();'>Please click here for animation!</button>,1,testing.14,testing,The green circle,moves from red upward.,notAnotB
6145,NA,,html-button-delay-response,6,72511,0.0-6.0,dm2e3wvzcs,control,,<div class='container2'><div class='ball'><div class='redline'></div> <div class='wug1b'></div> </div><div class = 'ball2'></div></div><button onclick = 'DoAnimation();'>Please click here for animation!</button>,1,testing.9,testing,The green circle,moves from red upward.,AnotB
4698,NA,,html-button-delay-response,7,77712,0.0-7.0,dm2e3wvzcs,control,,<div class='container2'><div class='ball'><div class='redline'></div> <div class='wug3'></div> </div><div class = 'ball2'></div></div><button onclick = 'DoAnimation();'>Please click here for animation!</button>,0,testing.3,testing,The green circle,moves from red upward.,AB
8468,NA,,html-button-delay-response,8,86688,0.0-8.0,dm2e3wvzcs,control,,<div class='container2'><div class='ball'><div class='redline'></div> <div class='dot2'></div> </div><div class = 'ball2'></div></div><button onclick = 'DoAnimation();'>Please click here for animation!</button>,0,testing.6,testing,The green circle,does not move from red upward.,notAB
4793,NA,,html-button-delay-response,9,91982,0.0-9.0,dm2e3wvzcs,control,,<div class='container2'><div class='ball'><div class='redline'></div> <div class='wug2'></div> </div><div class = 'ball2'></div></div><button onclick = 'DoAnimation();'>Please click here for animation!</button>,1,testing.2,testing,The green circle,does not move from red upward.,AB
7435,NA,,html-button-delay-response,10,99918,0.0-10.0,dm2e3wvzcs,control,,<div class='container2'><div class='ball'><div class='redline'></div> <div class='wug2b'></div> </div><div class = 'ball2'></div></div><button onclick = 'DoAnimation();'>Please click here for animation!</button>,1,testing.10,testing,The green circle,moves from red upward.,AnotB
4199,NA,,html-button-delay-response,11,104618,0.0-11.0,dm2e3wvzcs,control,,<div class='container2'><div class='ball'><div class='redline'></div> <div class='dot2a'></div> </div><div class = 'ball2'></div></div><button onclick = 'DoAnimation();'>Please click here for animation!</button>,1,testing.13,testing,The green circle,moves from red upward.,notAnotB
8025,NA,,html-button-delay-response,12,113150,0.0-12.0,dm2e3wvzcs,control,,<div class='container2'><div class='ball'><div class='redline'></div> <div class='wug4'></div> </div><div class = 'ball2'></div></div><button onclick = 'DoAnimation();'>Please click here for animation!</button>,1,testing.4,testing,The green circle,does not move from red upward.,AB
5495,NA,,html-button-delay-response,13,119151,0.0-13.0,dm2e3wvzcs,control,,<div class='container2'><div class='ball'><div class='redline'></div> <div class='dot4'></div> </div><div class = 'ball2'></div></div><button onclick = 'DoAnimation();'>Please click here for animation!</button>,1,testing.8,testing,The green circle,does not move from red upward.,notAB
6177,NA,,html-button-delay-response,14,125842,0.0-14.0,dm2e3wvzcs,control,,<div class='container2'><div class='ball'><div class='redline'></div> <div class='dot1'></div> </div><div class = 'ball2'></div></div><button onclick = 'DoAnimation();'>Please click here for animation!</button>,1,testing.5,testing,The green circle,moves from red upward.,notAB
6733,NA,,html-button-delay-response,15,133090,0.0-15.0,dm2e3wvzcs,control,,<div class='container2'><div class='ball'><div class='redline'></div> <div class='dot1a'></div> </div><div class = 'ball2'></div></div><button onclick = 'DoAnimation();'>Please click here for animation!</button>,0,testing.15,testing,The green circle,does not move from red upward.,notAnotB
5127,NA,,html-button-delay-response,16,138718,0.0-16.0,dm2e3wvzcs,control,,<div class='container2'><div class='ball'><div class='redline'></div> <div class='dot4a'></div> </div><div class = 'ball2'></div></div><button onclick = 'DoAnimation();'>Please click here for animation!</button>,0,testing.16,testing,The green circle,does not move from red upward.,notAnotB
6152,NA,,html-button-delay-response,17,145371,0.0-17.0,dm2e3wvzcs,control,,<div class='container2'><div class='ball'><div class='redline'></div> <div class='wug4b'></div> </div><div class = 'ball2'></div></div><button onclick = 'DoAnimation();'>Please click here for animation!</button>,0,testing.12,testing,The green circle,does not move from red upward.,AnotB
10828,NA,,html-button-delay-response,18,156703,0.0-18.0,dm2e3wvzcs,control,,<div class='container2'><div class='ball'><div class='redline'></div> <div class='dot7'></div><div class='dot8'></div><div class='dot5'></div><div class='dot6'></div> </div><div class = 'ball2'></div></div><button onclick = 'DoAnimation();'>Please click here for animation!</button>,1,testing.20,testing,Every green circles,moves from red upward.,all_true_no_projection
6709,NA,,html-button-delay-response,19,163913,0.0-19.0,dm2e3wvzcs,control,,<div class='container2'><div class='ball'><div class='redline'></div> <div class='dot1a'></div><div class='dot2a'></div><div class='dot3b'></div><div class='dot4b'></div> </div><div class = 'ball2'></div></div><button onclick = 'DoAnimation();'>Please click here for animation!</button>,0,testing.19,testing,None of the green circles,moves from red upward.,none_true_no_projection
5630,NA,,html-button-delay-response,20,170054,0.0-20.0,dm2e3wvzcs,control,,<div class='container2'><div class='ball'><div class='redline'></div> <div class='wug1b'></div><div class='wug2b'></div><div class='wug3b'></div><div class='wug4b'></div> </div><div class = 'ball2'></div></div><button onclick = 'DoAnimation();'>Please click here for animation!</button>,0,testing.13,testing,Every green circle,moves from red upward.,all_true_universal
8181,NA,,html-button-delay-response,21,178743,0.0-21.0,dm2e3wvzcs,control,,<div class='container2'><div class='ball'><div class='redline'></div> <div class='wug1b'></div><div class='wug2b'></div><div class='dot3b'></div><div class='wug4b'></div> </div><div class = 'ball2'></div></div><button onclick = 'DoAnimation();'>Please click here for animation!</button>,1,testing.17,testing,Every green circle,moves from red upward.,all_true_existential
5289,NA,,html-button-delay-response,22,184537,0.0-22.0,dm2e3wvzcs,control,,<div class='container2'><div class='ball'><div class='redline'></div> <div class='wug1a'></div><div class='wug2a'></div><div class='wug3a'></div><div class='wug4a'></div> </div><div class = 'ball2'></div></div><button onclick = 'DoAnimation();'>Please click here for animation!</button>,0,testing.15,testing,None of the green circles,moves from red upward.,none_true_universal
10067,NA,,html-button-delay-response,23,195107,0.0-23.0,dm2e3wvzcs,control,,<div class='container2'><div class='ball'><div class='redline'></div> <div class='wug1a'></div><div class='wug2b'></div><div class='wug3a'></div><div class='wug4b'></div> </div><div class = 'ball2'></div></div><button onclick = 'DoAnimation();'>Please click here for animation!</button>,1,testing.16,testing,None of the green circles,moves from red upward.,none_false
4419,NA,,html-button-delay-response,24,200043,0.0-24.0,dm2e3wvzcs,control,,<div class='container2'><div class='ball'><div class='redline'></div> <div class='wug1b'></div><div class='wug2b'></div><div class='wug3a'></div><div class='wug4a'></div> </div><div class = 'ball2'></div></div><button onclick = 'DoAnimation();'>Please click here for animation!</button>,1,testing.14,testing,Every green circle,moves from red upward.,all_false
10238,NA,,html-button-delay-response,25,210785,0.0-25.0,dm2e3wvzcs,control,,<div class='container2'><div class='ball'><div class='redline'></div> <div class='wug1a'></div><div class='dot2a'></div><div class='wug3a'></div><div class='wug4a'></div> </div><div class = 'ball2'></div></div><button onclick = 'DoAnimation();'>Please click here for animation!</button>,0,testing.18,testing,None of the green circles,moves from red upward.,none_true_existential
19538,none,demo.1,survey-dropdown,26,230828,0.0-26.0,dm2e3wvzcs,control,,,,,,,,
19538,none,demo.2,survey-dropdown,26,230828,0.0-26.0,dm2e3wvzcs,control,,,,,,,,
19538,female,demo.3,survey-dropdown,26,230828,0.0-26.0,dm2e3wvzcs,control,,,,,,,,
19538,55-64,demo.4,survey-dropdown,26,230828,0.0-26.0,dm2e3wvzcs,control,,,,,,,,
10891,5ddd42e97d4595c9fd167af6,ProlificID,survey-text,0,10891,0.0-0.0,hanrd3szqr,wug=upward,,,,,,,,
24042,NA,instructions,instructions,1,34934,0.0-1.0,hanrd3szqr,wug=upward,"[{""page_index"":0,""viewing_time"":24041}]",,,,,,,
11993,NA,,html-button-delay-response,2,46927,0.0-2.0,hanrd3szqr,wug=upward,,<div class='container'><div class='ball_test'><div class='redline'></div> <div class='wug4b'></div></div></div></div><button onclick = 'DoAnimation();'>Please click here for animation!</button>,0,teaching.8,teaching,The green circle,,
6925,NA,,html-button-delay-response,3,54354,0.0-3.0,hanrd3szqr,wug=upward,,<div class='container'><div class='ball_test'><div class='redline'></div> <div class='wug4'></div></div></div></div><button onclick = 'DoAnimation();'>Please click here for animation!</button>,0,teaching.4,teaching,The green circle,,
3695,NA,,html-button-delay-response,4,58550,0.0-4.0,hanrd3szqr,wug=upward,,<div class='container'><div class='ball_test'><div class='redline'></div> <div class='wug3b'></div></div></div></div><button onclick = 'DoAnimation();'>Please click here for animation!</button>,0,teaching.7,teaching,The green circle,,
4284,NA,,html-button-delay-response,5,63335,0.0-5.0,hanrd3szqr,wug=upward,,<div class='container'><div class='ball_test'><div class='redline'></div> <div class='wug1b'></div></div></div></div><button onclick = 'DoAnimation();'>Please click here for animation!</button>,0,teaching.5,teaching,The green circle,,
3553,NA,,html-button-delay-response,6,67390,0.0-6.0,hanrd3szqr,wug=upward,,<div class='container'><div class='ball_test'><div class='redline'></div> <div class='wug3'></div></div></div></div><button onclick = 'DoAnimation();'>Please click here for animation!</button>,0,teaching.3,teaching,The green circle,,
3194,NA,,html-button-delay-response,7,71088,0.0-7.0,hanrd3szqr,wug=upward,,<div class='container'><div class='ball_test'><div class='redline'></div> <div class='wug1'></div></div></div></div><button onclick = 'DoAnimation();'>Please click here for animation!</button>,0,teaching.1,teaching,The green circle,,
3010,NA,,html-button-delay-response,8,74601,0.0-8.0,hanrd3szqr,wug=upward,,<div class='container'><div class='ball_test'><div class='redline'></div> <div class='wug2b'></div></div></div></div><button onclick = 'DoAnimation();'>Please click here for animation!</button>,0,teaching.6,teaching,The green circle,,
2978,NA,,html-button-delay-response,9,78081,0.0-9.0,hanrd3szqr,wug=upward,,<div class='container'><div class='ball_test'><div class='redline'></div> <div class='wug2'></div></div></div></div><button onclick = 'DoAnimation();'>Please click here for animation!</button>,0,teaching.2,teaching,The green circle,,
9658,NA,break,html-button-response,10,88241,0.0-10.0,hanrd3szqr,wug=upward,,"<p style='text-align:center'>Now, let's see how <b>you</b> use <i>wug</i>!</p> <p style='text-align:center'> You will see two animations but only one of them is visible, the other hidden.  Your task is to decide whether the sentence you will see describes the visible animation or the hidden animation. You should choose the hidden scenario if you consider the visible one inappropriate given the sentence you will see. </p>",0,,,,,
13013,NA,,html-button-delay-response,11,101254,0.0-11.0,hanrd3szqr,wug=upward,,<div class='container2'><div class='ball'><div class='redline'></div> <div class='wug3b'></div> </div><div class = 'ball2'></div></div><button onclick = 'DoAnimation();'>Please click here for animation!</button>,0,testing.3,testing,The green circle,does not wug.,notAB
4587,NA,,html-button-delay-response,12,106344,0.0-12.0,hanrd3szqr,wug=upward,,<div class='container2'><div class='ball'><div class='redline'></div> <div class='wug4b'></div> </div><div class = 'ball2'></div></div><button onclick = 'DoAnimation();'>Please click here for animation!</button>,1,testing.4,testing,The green circle,wugs.,notAB
5816,NA,,html-button-delay-response,13,112661,0.0-13.0,hanrd3szqr,wug=upward,,<div class='container2'><div class='ball'><div class='redline'></div> <div class='wug1'></div> </div><div class = 'ball2'></div></div><button onclick = 'DoAnimation();'>Please click here for animation!</button>,1,testing.1,testing,The green circle,does not wug.,AB
4846,NA,,html-button-delay-response,14,118010,0.0-14.0,hanrd3szqr,wug=upward,,<div class='container2'><div class='ball'><div class='redline'></div> <div class='wug2'></div> </div><div class = 'ball2'></div></div><button onclick = 'DoAnimation();'>Please click here for animation!</button>,0,testing.2,testing,The green circle,wugs.,AB
6334,NA,,html-button-delay-response,15,124848,0.0-15.0,hanrd3szqr,wug=upward,,<div class='container2'><div class='ball'><div class='redline'></div> <div class='dot1'></div> </div><div class = 'ball2'></div></div><button onclick = 'DoAnimation();'>Please click here for animation!</button>,0,testing.7,testing,The green circle,wugs.,AnotB
6771,NA,,html-button-delay-response,16,132122,0.0-16.0,hanrd3szqr,wug=upward,,<div class='container2'><div class='ball'><div class='redline'></div> <div class='dot4'></div> </div><div class = 'ball2'></div></div><button onclick = 'DoAnimation();'>Please click here for animation!</button>,1,testing.8,testing,The green circle,does not wug.,AnotB
4123,NA,,html-button-delay-response,17,136746,0.0-17.0,hanrd3szqr,wug=upward,,<div class='container2'><div class='ball'><div class='redline'></div> <div class='dot4a'></div> </div><div class = 'ball2'></div></div><button onclick = 'DoAnimation();'>Please click here for animation!</button>,0,testing.12,testing,The green circle,does not wug.,notAnotB
4290,NA,,html-button-delay-response,18,141538,0.0-18.0,hanrd3szqr,wug=upward,,<div class='container2'><div class='ball'><div class='redline'></div> <div class='dot1a'></div> </div><div class = 'ball2'></div></div><button onclick = 'DoAnimation();'>Please click here for animation!</button>,1,testing.11,testing,The green circle,wugs.,notAnotB
6045,NA,,html-button-delay-response,19,148085,0.0-19.0,hanrd3szqr,wug=upward,,<div class='container2'><div class='ball'><div class='redline'></div> <div class='dot2a'></div> </div><div class = 'ball2'></div></div><button onclick = 'DoAnimation();'>Please click here for animation!</button>,1,testing.9,testing,The green circle,wugs.,notAnotB
3335,NA,,html-button-delay-response,20,151921,0.0-20.0,hanrd3szqr,wug=upward,,<div class='container2'><div class='ball'><div class='redline'></div> <div class='dot2'></div> </div><div class = 'ball2'></div></div><button onclick = 'DoAnimation();'>Please click here for animation!</button>,0,testing.5,testing,The green circle,wugs.,AnotB
3818,NA,,html-button-delay-response,21,156240,0.0-21.0,hanrd3szqr,wug=upward,,<div class='container2'><div class='ball'><div class='redline'></div> <div class='dot3a'></div> </div><div class = 'ball2'></div></div><button onclick = 'DoAnimation();'>Please click here for animation!</button>,0,testing.10,testing,The green circle,does not wug.,notAnotB
5116,NA,,html-button-delay-response,22,161858,0.0-22.0,hanrd3szqr,wug=upward,,<div class='container2'><div class='ball'><div class='redline'></div> <div class='dot3'></div> </div><div class = 'ball2'></div></div><button onclick = 'DoAnimation();'>Please click here for animation!</button>,1,testing.6,testing,The green circle,does not wug.,AnotB
5569,NA,,html-button-delay-response,23,167930,0.0-23.0,hanrd3szqr,wug=upward,,<div class='container2'><div class='ball'><div class='redline'></div> <div class='dot1a'></div><div class='dot2a'></div><div class='dot3b'></div><div class='dot4b'></div> </div><div class = 'ball2'></div></div><button onclick = 'DoAnimation();'>Please click here for animation!</button>,0,testing.19,testing,None of the green circles,wugs.,none_true_no_projection
4997,NA,,html-button-delay-response,24,173428,0.0-24.0,hanrd3szqr,wug=upward,,<div class='container2'><div class='ball'><div class='redline'></div> <div class='wug1b'></div><div class='wug2b'></div><div class='wug3a'></div><div class='wug4a'></div> </div><div class = 'ball2'></div></div><button onclick = 'DoAnimation();'>Please click here for animation!</button>,1,testing.14,testing,Every green circle,wugs.,all_false
4184,NA,,html-button-delay-response,25,178115,0.0-25.0,hanrd3szqr,wug=upward,,<div class='container2'><div class='ball'><div class='redline'></div> <div class='wug1a'></div><div class='dot2a'></div><div class='wug3a'></div><div class='wug4a'></div> </div><div class = 'ball2'></div></div><button onclick = 'DoAnimation();'>Please click here for animation!</button>,0,testing.18,testing,None of the green circles,wugs.,none_true_existential
4015,NA,,html-button-delay-response,26,182633,0.0-26.0,hanrd3szqr,wug=upward,,<div class='container2'><div class='ball'><div class='redline'></div> <div class='dot7'></div><div class='dot8'></div><div class='dot5'></div><div class='dot6'></div> </div><div class = 'ball2'></div></div><button onclick = 'DoAnimation();'>Please click here for animation!</button>,0,testing.20,testing,Every green circles,wugs.,all_true_no_projection
5434,NA,,html-button-delay-response,27,188569,0.0-27.0,hanrd3szqr,wug=upward,,<div class='container2'><div class='ball'><div class='redline'></div> <div class='wug1a'></div><div class='wug2b'></div><div class='wug3a'></div><div class='wug4b'></div> </div><div class = 'ball2'></div></div><button onclick = 'DoAnimation();'>Please click here for animation!</button>,1,testing.16,testing,None of the green circles,wugs.,none_false
3180,NA,,html-button-delay-response,28,192252,0.0-28.0,hanrd3szqr,wug=upward,,<div class='container2'><div class='ball'><div class='redline'></div> <div class='wug1b'></div><div class='wug2b'></div><div class='dot3b'></div><div class='wug4b'></div> </div><div class = 'ball2'></div></div><button onclick = 'DoAnimation();'>Please click here for animation!</button>,0,testing.17,testing,Every green circle,wugs.,all_true_existential
4738,NA,,html-button-delay-response,29,197491,0.0-29.0,hanrd3szqr,wug=upward,,<div class='container2'><div class='ball'><div class='redline'></div> <div class='wug1a'></div><div class='wug2a'></div><div class='wug3a'></div><div class='wug4a'></div> </div><div class = 'ball2'></div></div><button onclick = 'DoAnimation();'>Please click here for animation!</button>,0,testing.15,testing,None of the green circles,wugs.,none_true_universal
3842,NA,,html-button-delay-response,30,201836,0.0-30.0,hanrd3szqr,wug=upward,,<div class='container2'><div class='ball'><div class='redline'></div> <div class='wug1b'></div><div class='wug2b'></div><div class='wug3b'></div><div class='wug4b'></div> </div><div class = 'ball2'></div></div><button onclick = 'DoAnimation();'>Please click here for animation!</button>,0,testing.13,testing,Every green circle,wugs.,all_true_universal
48371,none,demo.1,survey-dropdown,31,250716,0.0-31.0,hanrd3szqr,wug=upward,,,,,,,,
48371,none,demo.2,survey-dropdown,31,250716,0.0-31.0,hanrd3szqr,wug=upward,,,,,,,,
48371,male,demo.3,survey-dropdown,31,250716,0.0-31.0,hanrd3szqr,wug=upward,,,,,,,,
48371,12-24,demo.4,survey-dropdown,31,250716,0.0-31.0,hanrd3szqr,wug=upward,,,,,,,,
10082,5943bc4a8bb5730001d4e780,ProlificID,survey-text,0,10087,0.0-0.0,5pgx4edqz6,no training,,,,,,,,
6795,NA,instructions,instructions,1,16885,0.0-1.0,5pgx4edqz6,no training,"[{""page_index"":0,""viewing_time"":6790}]",,,,,,,
19333,NA,,html-button-delay-response,2,36231,0.0-2.0,5pgx4edqz6,no training,,<div class='container'><div class='ball_test'><div class='redline'></div> <div class='wug4'></div></div></div></div><button onclick = 'DoAnimation();'>Please click here for animation!</button>,0,teaching.4,teaching,The green circle,,
7733,NA,,html-button-delay-response,3,44474,0.0-3.0,5pgx4edqz6,no training,,<div class='container'><div class='ball_test'><div class='redline'></div> <div class='wug1'></div></div></div></div><button onclick = 'DoAnimation();'>Please click here for animation!</button>,0,teaching.1,teaching,The green circle,,
6434,NA,,html-button-delay-response,4,51418,0.0-4.0,5pgx4edqz6,no training,,<div class='container'><div class='ball_test'><div class='redline'></div> <div class='wug3'></div></div></div></div><button onclick = 'DoAnimation();'>Please click here for animation!</button>,0,teaching.3,teaching,The green circle,,
5012,NA,,html-button-delay-response,5,56941,0.0-5.0,5pgx4edqz6,no training,,<div class='container'><div class='ball_test'><div class='redline'></div> <div class='wug2'></div></div></div></div><button onclick = 'DoAnimation();'>Please click here for animation!</button>,0,teaching.2,teaching,The green circle,,
15152,NA,break,html-button-response,6,72601,0.0-6.0,5pgx4edqz6,no training,,"<p style='text-align:center'>Now, let's see how <b>you</b> use <i>wug</i>!</p> <p style='text-align:center'> You will see two animations but only one of them is visible, the other hidden.  Your task is to decide whether the sentence you will see describes the visible animation or the hidden animation. You should choose the hidden scenario if you consider the visible one inappropriate given the sentence you will see. </p>",0,,,,,
13656,NA,,html-button-delay-response,7,86265,0.0-7.0,5pgx4edqz6,no training,,<div class='container2'><div class='ball'><div class='redline'></div> <div class='wug3b'></div> </div><div class = 'ball2'></div></div><button onclick = 'DoAnimation();'>Please click here for animation!</button>,1,testing.3,testing,The green circle,does not wug.,notAB
8252,NA,,html-button-delay-response,8,95025,0.0-8.0,5pgx4edqz6,no training,,<div class='container2'><div class='ball'><div class='redline'></div> <div class='wug4b'></div> </div><div class = 'ball2'></div></div><button onclick = 'DoAnimation();'>Please click here for animation!</button>,1,testing.4,testing,The green circle,wugs.,notAB
10306,NA,,html-button-delay-response,9,105839,0.0-9.0,5pgx4edqz6,no training,,<div class='container2'><div class='ball'><div class='redline'></div> <div class='wug1'></div> </div><div class = 'ball2'></div></div><button onclick = 'DoAnimation();'>Please click here for animation!</button>,1,testing.1,testing,The green circle,does not wug.,AB
4991,NA,,html-button-delay-response,10,111336,0.0-10.0,5pgx4edqz6,no training,,<div class='container2'><div class='ball'><div class='redline'></div> <div class='wug2'></div> </div><div class = 'ball2'></div></div><button onclick = 'DoAnimation();'>Please click here for animation!</button>,0,testing.2,testing,The green circle,wugs.,AB
