rt,responses,questionId,trial_type,trial_index,time_elapsed,internal_node_id,subjectId,group,view_history,stimulus,button_pressed,id,type,shape,phrase,condition
7275,603e1fe6849f5c63a9997cf5,ProlificID,survey-text,0,7278,0.0-0.0,8do0byc4kl,no training,,,,,,,,
5351,NA,instructions,instructions,1,12630,0.0-1.0,8do0byc4kl,no training,"[{""page_index"":0,""viewing_time"":5350}]",,,,,,,
6040,NA,,html-button-delay-response,2,18674,0.0-2.0,8do0byc4kl,no training,,<div class='container'><div class='ball_test'><div class='redline'></div> <div class='wug1'></div></div></div></div><button onclick = 'DoAnimation();'>Please click here for animation!</button>,0,teaching.1,teaching,The green circle,,
3984,NA,,html-button-delay-response,3,23159,0.0-3.0,8do0byc4kl,no training,,<div class='container'><div class='ball_test'><div class='redline'></div> <div class='wug3'></div></div></div></div><button onclick = 'DoAnimation();'>Please click here for animation!</button>,0,teaching.3,teaching,The green circle,,
3306,NA,,html-button-delay-response,4,26967,0.0-4.0,8do0byc4kl,no training,,<div class='container'><div class='ball_test'><div class='redline'></div> <div class='wug4'></div></div></div></div><button onclick = 'DoAnimation();'>Please click here for animation!</button>,0,teaching.4,teaching,The green circle,,
3384,NA,,html-button-delay-response,5,30853,0.0-5.0,8do0byc4kl,no training,,<div class='container'><div class='ball_test'><div class='redline'></div> <div class='wug2'></div></div></div></div><button onclick = 'DoAnimation();'>Please click here for animation!</button>,0,teaching.2,teaching,The green circle,,
10883,NA,break,html-button-response,6,42238,0.0-6.0,8do0byc4kl,no training,,"<p style='text-align:center'>Now, let's see how <b>you</b> use <i>wug</i>!</p> <p style='text-align:center'> You will see two animations but only one of them is visible, the other hidden.  Your task is to decide whether the sentence you will see describes the visible animation or the hidden animation. You should choose the hidden scenario if you consider the visible one inappropriate given the sentence you will see. </p>",0,,,,,
9194,NA,,html-button-delay-response,7,51434,0.0-7.0,8do0byc4kl,no training,,<div class='container2'><div class='ball'><div class='redline'></div> <div class='wug1'></div> </div><div class = 'ball2'></div></div><button onclick = 'DoAnimation();'>Please click here for animation!</button>,1,testing.1,testing,The green circle,does not wug.,AB
30247,NA,,html-button-delay-response,8,82183,0.0-8.0,8do0byc4kl,no training,,<div class='container2'><div class='ball'><div class='redline'></div> <div class='wug3b'></div> </div><div class = 'ball2'></div></div><button onclick = 'DoAnimation();'>Please click here for animation!</button>,1,testing.3,testing,The green circle,does not wug.,notAB
3548,NA,,html-button-delay-response,9,86233,0.0-9.0,8do0byc4kl,no training,,<div class='container2'><div class='ball'><div class='redline'></div> <div class='wug4b'></div> </div><div class = 'ball2'></div></div><button onclick = 'DoAnimation();'>Please click here for animation!</button>,0,testing.4,testing,The green circle,wugs.,notAB
2883,NA,,html-button-delay-response,10,89618,0.0-10.0,8do0byc4kl,no training,,<div class='container2'><div class='ball'><div class='redline'></div> <div class='wug2'></div> </div><div class = 'ball2'></div></div><button onclick = 'DoAnimation();'>Please click here for animation!</button>,0,testing.2,testing,The green circle,wugs.,AB
4116,NA,,html-button-delay-response,11,94236,0.0-11.0,8do0byc4kl,no training,,<div class='container2'><div class='ball'><div class='redline'></div> <div class='dot2'></div> </div><div class = 'ball2'></div></div><button onclick = 'DoAnimation();'>Please click here for animation!</button>,1,testing.5,testing,The green circle,wugs.,AnotB
8553,NA,,html-button-delay-response,12,103291,0.0-12.0,8do0byc4kl,no training,,<div class='container2'><div class='ball'><div class='redline'></div> <div class='dot3a'></div> </div><div class = 'ball2'></div></div><button onclick = 'DoAnimation();'>Please click here for animation!</button>,0,testing.10,testing,The green circle,does not wug.,notAnotB
4135,NA,,html-button-delay-response,13,107927,0.0-13.0,8do0byc4kl,no training,,<div class='container2'><div class='ball'><div class='redline'></div> <div class='dot3'></div> </div><div class = 'ball2'></div></div><button onclick = 'DoAnimation();'>Please click here for animation!</button>,1,testing.6,testing,The green circle,does not wug.,AnotB
2670,NA,,html-button-delay-response,14,111101,0.0-14.0,8do0byc4kl,no training,,<div class='container2'><div class='ball'><div class='redline'></div> <div class='dot1a'></div> </div><div class = 'ball2'></div></div><button onclick = 'DoAnimation();'>Please click here for animation!</button>,0,testing.11,testing,The green circle,wugs.,notAnotB
4216,NA,,html-button-delay-response,15,115821,0.0-15.0,8do0byc4kl,no training,,<div class='container2'><div class='ball'><div class='redline'></div> <div class='dot4'></div> </div><div class = 'ball2'></div></div><button onclick = 'DoAnimation();'>Please click here for animation!</button>,1,testing.8,testing,The green circle,does not wug.,AnotB
3216,NA,,html-button-delay-response,16,119539,0.0-16.0,8do0byc4kl,no training,,<div class='container2'><div class='ball'><div class='redline'></div> <div class='dot4a'></div> </div><div class = 'ball2'></div></div><button onclick = 'DoAnimation();'>Please click here for animation!</button>,1,testing.12,testing,The green circle,does not wug.,notAnotB
2741,NA,,html-button-delay-response,17,122782,0.0-17.0,8do0byc4kl,no training,,<div class='container2'><div class='ball'><div class='redline'></div> <div class='dot2a'></div> </div><div class = 'ball2'></div></div><button onclick = 'DoAnimation();'>Please click here for animation!</button>,0,testing.9,testing,The green circle,wugs.,notAnotB
2810,NA,,html-button-delay-response,18,126094,0.0-18.0,8do0byc4kl,no training,,<div class='container2'><div class='ball'><div class='redline'></div> <div class='dot1'></div> </div><div class = 'ball2'></div></div><button onclick = 'DoAnimation();'>Please click here for animation!</button>,0,testing.7,testing,The green circle,wugs.,AnotB
3009,NA,,html-button-delay-response,19,129605,0.0-19.0,8do0byc4kl,no training,,<div class='container2'><div class='ball'><div class='redline'></div> <div class='wug1b'></div><div class='wug2b'></div><div class='dot3b'></div><div class='wug4b'></div> </div><div class = 'ball2'></div></div><button onclick = 'DoAnimation();'>Please click here for animation!</button>,0,testing.17,testing,Every green circle,wugs.,all_true_existential
3549,NA,,html-button-delay-response,20,133655,0.0-20.0,8do0byc4kl,no training,,<div class='container2'><div class='ball'><div class='redline'></div> <div class='wug1a'></div><div class='wug2b'></div><div class='wug3a'></div><div class='wug4b'></div> </div><div class = 'ball2'></div></div><button onclick = 'DoAnimation();'>Please click here for animation!</button>,1,testing.16,testing,None of the green circles,wugs.,none_false
3149,NA,,html-button-delay-response,21,137307,0.0-21.0,8do0byc4kl,no training,,<div class='container2'><div class='ball'><div class='redline'></div> <div class='wug1b'></div><div class='wug2b'></div><div class='wug3b'></div><div class='wug4b'></div> </div><div class = 'ball2'></div></div><button onclick = 'DoAnimation();'>Please click here for animation!</button>,0,testing.13,testing,Every green circle,wugs.,all_true_universal
37794,NA,,html-button-delay-response,22,175603,0.0-22.0,8do0byc4kl,no training,,<div class='container2'><div class='ball'><div class='redline'></div> <div class='dot7'></div><div class='dot8'></div><div class='dot5'></div><div class='dot6'></div> </div><div class = 'ball2'></div></div><button onclick = 'DoAnimation();'>Please click here for animation!</button>,0,testing.20,testing,Every green circles,wugs.,all_true_no_projection
3563,NA,,html-button-delay-response,23,179667,0.0-23.0,8do0byc4kl,no training,,<div class='container2'><div class='ball'><div class='redline'></div> <div class='wug1b'></div><div class='wug2b'></div><div class='wug3a'></div><div class='wug4a'></div> </div><div class = 'ball2'></div></div><button onclick = 'DoAnimation();'>Please click here for animation!</button>,1,testing.14,testing,Every green circle,wugs.,all_false
4684,NA,,html-button-delay-response,24,184854,0.0-24.0,8do0byc4kl,no training,,<div class='container2'><div class='ball'><div class='redline'></div> <div class='dot1a'></div><div class='dot2a'></div><div class='dot3b'></div><div class='dot4b'></div> </div><div class = 'ball2'></div></div><button onclick = 'DoAnimation();'>Please click here for animation!</button>,1,testing.19,testing,None of the green circles,wugs.,none_true_no_projection
4056,NA,,html-button-delay-response,25,189412,0.0-25.0,8do0byc4kl,no training,,<div class='container2'><div class='ball'><div class='redline'></div> <div class='wug1a'></div><div class='dot2a'></div><div class='wug3a'></div><div class='wug4a'></div> </div><div class = 'ball2'></div></div><button onclick = 'DoAnimation();'>Please click here for animation!</button>,0,testing.18,testing,None of the green circles,wugs.,none_true_existential
3211,NA,,html-button-delay-response,26,193125,0.0-26.0,8do0byc4kl,no training,,<div class='container2'><div class='ball'><div class='redline'></div> <div class='wug1a'></div><div class='wug2a'></div><div class='wug3a'></div><div class='wug4a'></div> </div><div class = 'ball2'></div></div><button onclick = 'DoAnimation();'>Please click here for animation!</button>,1,testing.15,testing,None of the green circles,wugs.,none_true_universal
26574,2+ug,demo.1,survey-dropdown,27,220205,0.0-27.0,8do0byc4kl,no training,,,,,,,,
26574,none,demo.2,survey-dropdown,27,220205,0.0-27.0,8do0byc4kl,no training,,,,,,,,
26574,male,demo.3,survey-dropdown,27,220205,0.0-27.0,8do0byc4kl,no training,,,,,,,,
26574,12-24,demo.4,survey-dropdown,27,220205,0.0-27.0,8do0byc4kl,no training,,,,,,,,
10082,5943bc4a8bb5730001d4e780,ProlificID,survey-text,0,10087,0.0-0.0,5pgx4edqz6,no training,,,,,,,,
6795,NA,instructions,instructions,1,16885,0.0-1.0,5pgx4edqz6,no training,"[{""page_index"":0,""viewing_time"":6790}]",,,,,,,
19333,NA,,html-button-delay-response,2,36231,0.0-2.0,5pgx4edqz6,no training,,<div class='container'><div class='ball_test'><div class='redline'></div> <div class='wug4'></div></div></div></div><button onclick = 'DoAnimation();'>Please click here for animation!</button>,0,teaching.4,teaching,The green circle,,
7733,NA,,html-button-delay-response,3,44474,0.0-3.0,5pgx4edqz6,no training,,<div class='container'><div class='ball_test'><div class='redline'></div> <div class='wug1'></div></div></div></div><button onclick = 'DoAnimation();'>Please click here for animation!</button>,0,teaching.1,teaching,The green circle,,
6434,NA,,html-button-delay-response,4,51418,0.0-4.0,5pgx4edqz6,no training,,<div class='container'><div class='ball_test'><div class='redline'></div> <div class='wug3'></div></div></div></div><button onclick = 'DoAnimation();'>Please click here for animation!</button>,0,teaching.3,teaching,The green circle,,
5012,NA,,html-button-delay-response,5,56941,0.0-5.0,5pgx4edqz6,no training,,<div class='container'><div class='ball_test'><div class='redline'></div> <div class='wug2'></div></div></div></div><button onclick = 'DoAnimation();'>Please click here for animation!</button>,0,teaching.2,teaching,The green circle,,
15152,NA,break,html-button-response,6,72601,0.0-6.0,5pgx4edqz6,no training,,"<p style='text-align:center'>Now, let's see how <b>you</b> use <i>wug</i>!</p> <p style='text-align:center'> You will see two animations but only one of them is visible, the other hidden.  Your task is to decide whether the sentence you will see describes the visible animation or the hidden animation. You should choose the hidden scenario if you consider the visible one inappropriate given the sentence you will see. </p>",0,,,,,
13656,NA,,html-button-delay-response,7,86265,0.0-7.0,5pgx4edqz6,no training,,<div class='container2'><div class='ball'><div class='redline'></div> <div class='wug3b'></div> </div><div class = 'ball2'></div></div><button onclick = 'DoAnimation();'>Please click here for animation!</button>,1,testing.3,testing,The green circle,does not wug.,notAB
8252,NA,,html-button-delay-response,8,95025,0.0-8.0,5pgx4edqz6,no training,,<div class='container2'><div class='ball'><div class='redline'></div> <div class='wug4b'></div> </div><div class = 'ball2'></div></div><button onclick = 'DoAnimation();'>Please click here for animation!</button>,1,testing.4,testing,The green circle,wugs.,notAB
10306,NA,,html-button-delay-response,9,105839,0.0-9.0,5pgx4edqz6,no training,,<div class='container2'><div class='ball'><div class='redline'></div> <div class='wug1'></div> </div><div class = 'ball2'></div></div><button onclick = 'DoAnimation();'>Please click here for animation!</button>,1,testing.1,testing,The green circle,does not wug.,AB
4991,NA,,html-button-delay-response,10,111336,0.0-10.0,5pgx4edqz6,no training,,<div class='container2'><div class='ball'><div class='redline'></div> <div class='wug2'></div> </div><div class = 'ball2'></div></div><button onclick = 'DoAnimation();'>Please click here for animation!</button>,0,testing.2,testing,The green circle,wugs.,AB
7052,NA,,html-button-delay-response,11,118895,0.0-11.0,5pgx4edqz6,no training,,<div class='container2'><div class='ball'><div class='redline'></div> <div class='dot4a'></div> </div><div class = 'ball2'></div></div><button onclick = 'DoAnimation();'>Please click here for animation!</button>,1,testing.12,testing,The green circle,does not wug.,notAnotB
10985,NA,,html-button-delay-response,12,130389,0.0-12.0,5pgx4edqz6,no training,,<div class='container2'><div class='ball'><div class='redline'></div> <div class='dot3a'></div> </div><div class = 'ball2'></div></div><button onclick = 'DoAnimation();'>Please click here for animation!</button>,1,testing.10,testing,The green circle,does not wug.,notAnotB
5226,NA,,html-button-delay-response,13,136127,0.0-13.0,5pgx4edqz6,no training,,<div class='container2'><div class='ball'><div class='redline'></div> <div class='dot3'></div> </div><div class = 'ball2'></div></div><button onclick = 'DoAnimation();'>Please click here for animation!</button>,1,testing.6,testing,The green circle,does not wug.,AnotB
14936,NA,,html-button-delay-response,14,151571,0.0-14.0,5pgx4edqz6,no training,,<div class='container2'><div class='ball'><div class='redline'></div> <div class='dot4'></div> </div><div class = 'ball2'></div></div><button onclick = 'DoAnimation();'>Please click here for animation!</button>,0,testing.8,testing,The green circle,does not wug.,AnotB
4965,NA,,html-button-delay-response,15,157043,0.0-15.0,5pgx4edqz6,no training,,<div class='container2'><div class='ball'><div class='redline'></div> <div class='dot2a'></div> </div><div class = 'ball2'></div></div><button onclick = 'DoAnimation();'>Please click here for animation!</button>,1,testing.9,testing,The green circle,wugs.,notAnotB
4771,NA,,html-button-delay-response,16,162324,0.0-16.0,5pgx4edqz6,no training,,<div class='container2'><div class='ball'><div class='redline'></div> <div class='dot2'></div> </div><div class = 'ball2'></div></div><button onclick = 'DoAnimation();'>Please click here for animation!</button>,1,testing.5,testing,The green circle,wugs.,AnotB
6946,NA,,html-button-delay-response,17,169777,0.0-17.0,5pgx4edqz6,no training,,<div class='container2'><div class='ball'><div class='redline'></div> <div class='dot1a'></div> </div><div class = 'ball2'></div></div><button onclick = 'DoAnimation();'>Please click here for animation!</button>,1,testing.11,testing,The green circle,wugs.,notAnotB
14435,NA,,html-button-delay-response,18,184720,0.0-18.0,5pgx4edqz6,no training,,<div class='container2'><div class='ball'><div class='redline'></div> <div class='dot1'></div> </div><div class = 'ball2'></div></div><button onclick = 'DoAnimation();'>Please click here for animation!</button>,1,testing.7,testing,The green circle,wugs.,AnotB
14377,NA,,html-button-delay-response,19,199604,0.0-19.0,5pgx4edqz6,no training,,<div class='container2'><div class='ball'><div class='redline'></div> <div class='wug1a'></div><div class='wug2b'></div><div class='wug3a'></div><div class='wug4b'></div> </div><div class = 'ball2'></div></div><button onclick = 'DoAnimation();'>Please click here for animation!</button>,1,testing.16,testing,None of the green circles,wugs.,none_false
4885,NA,,html-button-delay-response,20,204998,0.0-20.0,5pgx4edqz6,no training,,<div class='container2'><div class='ball'><div class='redline'></div> <div class='wug1a'></div><div class='dot2a'></div><div class='wug3a'></div><div class='wug4a'></div> </div><div class = 'ball2'></div></div><button onclick = 'DoAnimation();'>Please click here for animation!</button>,0,testing.18,testing,None of the green circles,wugs.,none_true_existential
6952,NA,,html-button-delay-response,21,212459,0.0-21.0,5pgx4edqz6,no training,,<div class='container2'><div class='ball'><div class='redline'></div> <div class='wug1b'></div><div class='wug2b'></div><div class='wug3a'></div><div class='wug4a'></div> </div><div class = 'ball2'></div></div><button onclick = 'DoAnimation();'>Please click here for animation!</button>,1,testing.14,testing,Every green circle,wugs.,all_false
5214,NA,,html-button-delay-response,22,218183,0.0-22.0,5pgx4edqz6,no training,,<div class='container2'><div class='ball'><div class='redline'></div> <div class='wug1b'></div><div class='wug2b'></div><div class='dot3b'></div><div class='wug4b'></div> </div><div class = 'ball2'></div></div><button onclick = 'DoAnimation();'>Please click here for animation!</button>,0,testing.17,testing,Every green circle,wugs.,all_true_existential
6204,NA,,html-button-delay-response,23,224898,0.0-23.0,5pgx4edqz6,no training,,<div class='container2'><div class='ball'><div class='redline'></div> <div class='dot7'></div><div class='dot8'></div><div class='dot5'></div><div class='dot6'></div> </div><div class = 'ball2'></div></div><button onclick = 'DoAnimation();'>Please click here for animation!</button>,0,testing.20,testing,Every green circles,wugs.,all_true_no_projection
4575,NA,,html-button-delay-response,24,229979,0.0-24.0,5pgx4edqz6,no training,,<div class='container2'><div class='ball'><div class='redline'></div> <div class='wug1a'></div><div class='wug2a'></div><div class='wug3a'></div><div class='wug4a'></div> </div><div class = 'ball2'></div></div><button onclick = 'DoAnimation();'>Please click here for animation!</button>,0,testing.15,testing,None of the green circles,wugs.,none_true_universal
5001,NA,,html-button-delay-response,25,235488,0.0-25.0,5pgx4edqz6,no training,,<div class='container2'><div class='ball'><div class='redline'></div> <div class='wug1b'></div><div class='wug2b'></div><div class='wug3b'></div><div class='wug4b'></div> </div><div class = 'ball2'></div></div><button onclick = 'DoAnimation();'>Please click here for animation!</button>,0,testing.13,testing,Every green circle,wugs.,all_true_universal
6994,NA,,html-button-delay-response,26,242992,0.0-26.0,5pgx4edqz6,no training,,<div class='container2'><div class='ball'><div class='redline'></div> <div class='dot1a'></div><div class='dot2a'></div><div class='dot3b'></div><div class='dot4b'></div> </div><div class = 'ball2'></div></div><button onclick = 'DoAnimation();'>Please click here for animation!</button>,0,testing.19,testing,None of the green circles,wugs.,none_true_no_projection
22723,1g,demo.1,survey-dropdown,27,266259,0.0-27.0,5pgx4edqz6,no training,,,,,,,,
22723,none,demo.2,survey-dropdown,27,266259,0.0-27.0,5pgx4edqz6,no training,,,,,,,,
22723,female,demo.3,survey-dropdown,27,266259,0.0-27.0,5pgx4edqz6,no training,,,,,,,,
22723,45-54,demo.4,survey-dropdown,27,266259,0.0-27.0,5pgx4edqz6,no training,,,,,,,,
11081,5f2bbc6aeb53d8662950e250,ProlificID,survey-text,0,11088,0.0-0.0,r1owmr1aa9,no training,,,,,,,,
2873,NA,instructions,instructions,1,13967,0.0-1.0,r1owmr1aa9,no training,"[{""page_index"":0,""viewing_time"":2872}]",,,,,,,
10709,NA,,html-button-delay-response,2,24688,0.0-2.0,r1owmr1aa9,no training,,<div class='container'><div class='ball_test'><div class='redline'></div> <div class='wug2'></div></div></div></div><button onclick = 'DoAnimation();'>Please click here for animation!</button>,0,teaching.2,teaching,The green circle,,
4984,NA,,html-button-delay-response,3,30177,0.0-3.0,r1owmr1aa9,no training,,<div class='container'><div class='ball_test'><div class='redline'></div> <div class='wug1'></div></div></div></div><button onclick = 'DoAnimation();'>Please click here for animation!</button>,0,teaching.1,teaching,The green circle,,
3773,NA,,html-button-delay-response,4,34456,0.0-4.0,r1owmr1aa9,no training,,<div class='container'><div class='ball_test'><div class='redline'></div> <div class='wug3'></div></div></div></div><button onclick = 'DoAnimation();'>Please click here for animation!</button>,0,teaching.3,teaching,The green circle,,
3078,NA,,html-button-delay-response,5,38038,0.0-5.0,r1owmr1aa9,no training,,<div class='container'><div class='ball_test'><div class='redline'></div> <div class='wug4'></div></div></div></div><button onclick = 'DoAnimation();'>Please click here for animation!</button>,0,teaching.4,teaching,The green circle,,
6839,NA,break,html-button-response,6,45382,0.0-6.0,r1owmr1aa9,no training,,"<p style='text-align:center'>Now, let's see how <b>you</b> use <i>wug</i>!</p> <p style='text-align:center'> You will see two animations but only one of them is visible, the other hidden.  Your task is to decide whether the sentence you will see describes the visible animation or the hidden animation. You should choose the hidden scenario if you consider the visible one inappropriate given the sentence you will see. </p>",0,,,,,
12776,NA,,html-button-delay-response,7,58164,0.0-7.0,r1owmr1aa9,no training,,<div class='container2'><div class='ball'><div class='redline'></div> <div class='wug3b'></div> </div><div class = 'ball2'></div></div><button onclick = 'DoAnimation();'>Please click here for animation!</button>,1,testing.3,testing,The green circle,does not wug.,notAB
6564,NA,,html-button-delay-response,8,65234,0.0-8.0,r1owmr1aa9,no training,,<div class='container2'><div class='ball'><div class='redline'></div> <div class='wug1'></div> </div><div class = 'ball2'></div></div><button onclick = 'DoAnimation();'>Please click here for animation!</button>,1,testing.1,testing,The green circle,does not wug.,AB
3584,NA,,html-button-delay-response,9,69324,0.0-9.0,r1owmr1aa9,no training,,<div class='container2'><div class='ball'><div class='redline'></div> <div class='wug4b'></div> </div><div class = 'ball2'></div></div><button onclick = 'DoAnimation();'>Please click here for animation!</button>,1,testing.4,testing,The green circle,wugs.,notAB
3752,NA,,html-button-delay-response,10,73582,0.0-10.0,r1owmr1aa9,no training,,<div class='container2'><div class='ball'><div class='redline'></div> <div class='wug2'></div> </div><div class = 'ball2'></div></div><button onclick = 'DoAnimation();'>Please click here for animation!</button>,0,testing.2,testing,The green circle,wugs.,AB
10961,NA,,html-button-delay-response,11,85047,0.0-11.0,r1owmr1aa9,no training,,<div class='container2'><div class='ball'><div class='redline'></div> <div class='dot2'></div> </div><div class = 'ball2'></div></div><button onclick = 'DoAnimation();'>Please click here for animation!</button>,0,testing.5,testing,The green circle,wugs.,AnotB
4556,NA,,html-button-delay-response,12,90109,0.0-12.0,r1owmr1aa9,no training,,<div class='container2'><div class='ball'><div class='redline'></div> <div class='dot2a'></div> </div><div class = 'ball2'></div></div><button onclick = 'DoAnimation();'>Please click here for animation!</button>,1,testing.9,testing,The green circle,wugs.,notAnotB
4634,NA,,html-button-delay-response,13,95248,0.0-13.0,r1owmr1aa9,no training,,<div class='container2'><div class='ball'><div class='redline'></div> <div class='dot1a'></div> </div><div class = 'ball2'></div></div><button onclick = 'DoAnimation();'>Please click here for animation!</button>,1,testing.11,testing,The green circle,wugs.,notAnotB
3759,NA,,html-button-delay-response,14,99513,0.0-14.0,r1owmr1aa9,no training,,<div class='container2'><div class='ball'><div class='redline'></div> <div class='dot4a'></div> </div><div class = 'ball2'></div></div><button onclick = 'DoAnimation();'>Please click here for animation!</button>,0,testing.12,testing,The green circle,does not wug.,notAnotB
10426,NA,,html-button-delay-response,15,110444,0.0-15.0,r1owmr1aa9,no training,,<div class='container2'><div class='ball'><div class='redline'></div> <div class='dot4'></div> </div><div class = 'ball2'></div></div><button onclick = 'DoAnimation();'>Please click here for animation!</button>,1,testing.8,testing,The green circle,does not wug.,AnotB
4642,NA,,html-button-delay-response,16,115591,0.0-16.0,r1owmr1aa9,no training,,<div class='container2'><div class='ball'><div class='redline'></div> <div class='dot3a'></div> </div><div class = 'ball2'></div></div><button onclick = 'DoAnimation();'>Please click here for animation!</button>,0,testing.10,testing,The green circle,does not wug.,notAnotB
4134,NA,,html-button-delay-response,17,120229,0.0-17.0,r1owmr1aa9,no training,,<div class='container2'><div class='ball'><div class='redline'></div> <div class='dot1'></div> </div><div class = 'ball2'></div></div><button onclick = 'DoAnimation();'>Please click here for animation!</button>,0,testing.7,testing,The green circle,wugs.,AnotB
3950,NA,,html-button-delay-response,18,124684,0.0-18.0,r1owmr1aa9,no training,,<div class='container2'><div class='ball'><div class='redline'></div> <div class='dot3'></div> </div><div class = 'ball2'></div></div><button onclick = 'DoAnimation();'>Please click here for animation!</button>,1,testing.6,testing,The green circle,does not wug.,AnotB
4582,NA,,html-button-delay-response,19,129773,0.0-19.0,r1owmr1aa9,no training,,<div class='container2'><div class='ball'><div class='redline'></div> <div class='wug1b'></div><div class='wug2b'></div><div class='wug3a'></div><div class='wug4a'></div> </div><div class = 'ball2'></div></div><button onclick = 'DoAnimation();'>Please click here for animation!</button>,1,testing.14,testing,Every green circle,wugs.,all_false
3180,NA,,html-button-delay-response,20,133459,0.0-20.0,r1owmr1aa9,no training,,<div class='container2'><div class='ball'><div class='redline'></div> <div class='dot7'></div><div class='dot8'></div><div class='dot5'></div><div class='dot6'></div> </div><div class = 'ball2'></div></div><button onclick = 'DoAnimation();'>Please click here for animation!</button>,0,testing.20,testing,Every green circles,wugs.,all_true_no_projection
4640,NA,,html-button-delay-response,21,138605,0.0-21.0,r1owmr1aa9,no training,,<div class='container2'><div class='ball'><div class='redline'></div> <div class='dot1a'></div><div class='dot2a'></div><div class='dot3b'></div><div class='dot4b'></div> </div><div class = 'ball2'></div></div><button onclick = 'DoAnimation();'>Please click here for animation!</button>,0,testing.19,testing,None of the green circles,wugs.,none_true_no_projection
4731,NA,,html-button-delay-response,22,143842,0.0-22.0,r1owmr1aa9,no training,,<div class='container2'><div class='ball'><div class='redline'></div> <div class='wug1a'></div><div class='wug2b'></div><div class='wug3a'></div><div class='wug4b'></div> </div><div class = 'ball2'></div></div><button onclick = 'DoAnimation();'>Please click here for animation!</button>,1,testing.16,testing,None of the green circles,wugs.,none_false
4788,NA,,html-button-delay-response,23,149135,0.0-23.0,r1owmr1aa9,no training,,<div class='container2'><div class='ball'><div class='redline'></div> <div class='wug1a'></div><div class='wug2a'></div><div class='wug3a'></div><div class='wug4a'></div> </div><div class = 'ball2'></div></div><button onclick = 'DoAnimation();'>Please click here for animation!</button>,0,testing.15,testing,None of the green circles,wugs.,none_true_universal
3118,NA,,html-button-delay-response,24,152759,0.0-24.0,r1owmr1aa9,no training,,<div class='container2'><div class='ball'><div class='redline'></div> <div class='wug1a'></div><div class='dot2a'></div><div class='wug3a'></div><div class='wug4a'></div> </div><div class = 'ball2'></div></div><button onclick = 'DoAnimation();'>Please click here for animation!</button>,0,testing.18,testing,None of the green circles,wugs.,none_true_existential
3699,NA,,html-button-delay-response,25,156966,0.0-25.0,r1owmr1aa9,no training,,<div class='container2'><div class='ball'><div class='redline'></div> <div class='wug1b'></div><div class='wug2b'></div><div class='dot3b'></div><div class='wug4b'></div> </div><div class = 'ball2'></div></div><button onclick = 'DoAnimation();'>Please click here for animation!</button>,0,testing.17,testing,Every green circle,wugs.,all_true_existential
3162,NA,,html-button-delay-response,26,160635,0.0-26.0,r1owmr1aa9,no training,,<div class='container2'><div class='ball'><div class='redline'></div> <div class='wug1b'></div><div class='wug2b'></div><div class='wug3b'></div><div class='wug4b'></div> </div><div class = 'ball2'></div></div><button onclick = 'DoAnimation();'>Please click here for animation!</button>,0,testing.13,testing,Every green circle,wugs.,all_true_universal
18086,1ug,demo.1,survey-dropdown,27,179236,0.0-27.0,r1owmr1aa9,no training,,,,,,,,
18086,none,demo.2,survey-dropdown,27,179236,0.0-27.0,r1owmr1aa9,no training,,,,,,,,
18086,female,demo.3,survey-dropdown,27,179236,0.0-27.0,r1owmr1aa9,no training,,,,,,,,
18086,12-24,demo.4,survey-dropdown,27,179236,0.0-27.0,r1owmr1aa9,no training,,,,,,,,
12720,5ec006506c113a40ec9e92ee,ProlificID,survey-text,0,12722,0.0-0.0,73yucnjz17,no training,,,,,,,,
3160,NA,instructions,instructions,1,15882,0.0-1.0,73yucnjz17,no training,"[{""page_index"":0,""viewing_time"":3159}]",,,,,,,
10481,NA,,html-button-delay-response,2,26365,0.0-2.0,73yucnjz17,no training,,<div class='container'><div class='ball_test'><div class='redline'></div> <div class='wug3'></div></div></div></div><button onclick = 'DoAnimation();'>Please click here for animation!</button>,0,teaching.3,teaching,The green circle,,
10018,NA,,html-button-delay-response,3,36886,0.0-3.0,73yucnjz17,no training,,<div class='container'><div class='ball_test'><div class='redline'></div> <div class='wug1'></div></div></div></div><button onclick = 'DoAnimation();'>Please click here for animation!</button>,0,teaching.1,teaching,The green circle,,
7065,NA,,html-button-delay-response,4,44453,0.0-4.0,73yucnjz17,no training,,<div class='container'><div class='ball_test'><div class='redline'></div> <div class='wug2'></div></div></div></div><button onclick = 'DoAnimation();'>Please click here for animation!</button>,0,teaching.2,teaching,The green circle,,
4170,NA,,html-button-delay-response,5,49126,0.0-5.0,73yucnjz17,no training,,<div class='container'><div class='ball_test'><div class='redline'></div> <div class='wug4'></div></div></div></div><button onclick = 'DoAnimation();'>Please click here for animation!</button>,0,teaching.4,teaching,The green circle,,
28442,NA,break,html-button-response,6,78071,0.0-6.0,73yucnjz17,no training,,"<p style='text-align:center'>Now, let's see how <b>you</b> use <i>wug</i>!</p> <p style='text-align:center'> You will see two animations but only one of them is visible, the other hidden.  Your task is to decide whether the sentence you will see describes the visible animation or the hidden animation. You should choose the hidden scenario if you consider the visible one inappropriate given the sentence you will see. </p>",0,,,,,
11337,NA,,html-button-delay-response,7,89410,0.0-7.0,73yucnjz17,no training,,<div class='container2'><div class='ball'><div class='redline'></div> <div class='wug1'></div> </div><div class = 'ball2'></div></div><button onclick = 'DoAnimation();'>Please click here for animation!</button>,1,testing.1,testing,The green circle,does not wug.,AB
7049,NA,,html-button-delay-response,8,96963,0.0-8.0,73yucnjz17,no training,,<div class='container2'><div class='ball'><div class='redline'></div> <div class='wug4b'></div> </div><div class = 'ball2'></div></div><button onclick = 'DoAnimation();'>Please click here for animation!</button>,1,testing.4,testing,The green circle,wugs.,notAB
5643,NA,,html-button-delay-response,9,103109,0.0-9.0,73yucnjz17,no training,,<div class='container2'><div class='ball'><div class='redline'></div> <div class='wug3b'></div> </div><div class = 'ball2'></div></div><button onclick = 'DoAnimation();'>Please click here for animation!</button>,0,testing.3,testing,The green circle,does not wug.,notAB
5775,NA,,html-button-delay-response,10,109387,0.0-10.0,73yucnjz17,no training,,<div class='container2'><div class='ball'><div class='redline'></div> <div class='wug2'></div> </div><div class = 'ball2'></div></div><button onclick = 'DoAnimation();'>Please click here for animation!</button>,0,testing.2,testing,The green circle,wugs.,AB
5514,NA,,html-button-delay-response,11,115405,0.0-11.0,73yucnjz17,no training,,<div class='container2'><div class='ball'><div class='redline'></div> <div class='dot2a'></div> </div><div class = 'ball2'></div></div><button onclick = 'DoAnimation();'>Please click here for animation!</button>,1,testing.9,testing,The green circle,wugs.,notAnotB
4034,NA,,html-button-delay-response,12,119942,0.0-12.0,73yucnjz17,no training,,<div class='container2'><div class='ball'><div class='redline'></div> <div class='dot2'></div> </div><div class = 'ball2'></div></div><button onclick = 'DoAnimation();'>Please click here for animation!</button>,1,testing.5,testing,The green circle,wugs.,AnotB
3413,NA,,html-button-delay-response,13,123857,0.0-13.0,73yucnjz17,no training,,<div class='container2'><div class='ball'><div class='redline'></div> <div class='dot3a'></div> </div><div class = 'ball2'></div></div><button onclick = 'DoAnimation();'>Please click here for animation!</button>,1,testing.10,testing,The green circle,does not wug.,notAnotB
3831,NA,,html-button-delay-response,14,128190,0.0-14.0,73yucnjz17,no training,,<div class='container2'><div class='ball'><div class='redline'></div> <div class='dot1a'></div> </div><div class = 'ball2'></div></div><button onclick = 'DoAnimation();'>Please click here for animation!</button>,1,testing.11,testing,The green circle,wugs.,notAnotB
9338,NA,,html-button-delay-response,15,138031,0.0-15.0,73yucnjz17,no training,,<div class='container2'><div class='ball'><div class='redline'></div> <div class='dot4'></div> </div><div class = 'ball2'></div></div><button onclick = 'DoAnimation();'>Please click here for animation!</button>,0,testing.8,testing,The green circle,does not wug.,AnotB
6244,NA,,html-button-delay-response,16,144777,0.0-16.0,73yucnjz17,no training,,<div class='container2'><div class='ball'><div class='redline'></div> <div class='dot4a'></div> </div><div class = 'ball2'></div></div><button onclick = 'DoAnimation();'>Please click here for animation!</button>,0,testing.12,testing,The green circle,does not wug.,notAnotB
5247,NA,,html-button-delay-response,17,150527,0.0-17.0,73yucnjz17,no training,,<div class='container2'><div class='ball'><div class='redline'></div> <div class='dot1'></div> </div><div class = 'ball2'></div></div><button onclick = 'DoAnimation();'>Please click here for animation!</button>,1,testing.7,testing,The green circle,wugs.,AnotB
4177,NA,,html-button-delay-response,18,155207,0.0-18.0,73yucnjz17,no training,,<div class='container2'><div class='ball'><div class='redline'></div> <div class='dot3'></div> </div><div class = 'ball2'></div></div><button onclick = 'DoAnimation();'>Please click here for animation!</button>,0,testing.6,testing,The green circle,does not wug.,AnotB
7655,NA,,html-button-delay-response,19,163366,0.0-19.0,73yucnjz17,no training,,<div class='container2'><div class='ball'><div class='redline'></div> <div class='wug1a'></div><div class='dot2a'></div><div class='wug3a'></div><div class='wug4a'></div> </div><div class = 'ball2'></div></div><button onclick = 'DoAnimation();'>Please click here for animation!</button>,0,testing.18,testing,None of the green circles,wugs.,none_true_existential
16080,NA,,html-button-delay-response,20,179948,0.0-20.0,73yucnjz17,no training,,<div class='container2'><div class='ball'><div class='redline'></div> <div class='dot1a'></div><div class='dot2a'></div><div class='dot3b'></div><div class='dot4b'></div> </div><div class = 'ball2'></div></div><button onclick = 'DoAnimation();'>Please click here for animation!</button>,0,testing.19,testing,None of the green circles,wugs.,none_true_no_projection
4595,NA,,html-button-delay-response,21,185046,0.0-21.0,73yucnjz17,no training,,<div class='container2'><div class='ball'><div class='redline'></div> <div class='wug1b'></div><div class='wug2b'></div><div class='wug3b'></div><div class='wug4b'></div> </div><div class = 'ball2'></div></div><button onclick = 'DoAnimation();'>Please click here for animation!</button>,0,testing.13,testing,Every green circle,wugs.,all_true_universal
3889,NA,,html-button-delay-response,22,189437,0.0-22.0,73yucnjz17,no training,,<div class='container2'><div class='ball'><div class='redline'></div> <div class='wug1b'></div><div class='wug2b'></div><div class='dot3b'></div><div class='wug4b'></div> </div><div class = 'ball2'></div></div><button onclick = 'DoAnimation();'>Please click here for animation!</button>,0,testing.17,testing,Every green circle,wugs.,all_true_existential
5927,NA,,html-button-delay-response,23,195867,0.0-23.0,73yucnjz17,no training,,<div class='container2'><div class='ball'><div class='redline'></div> <div class='wug1a'></div><div class='wug2b'></div><div class='wug3a'></div><div class='wug4b'></div> </div><div class = 'ball2'></div></div><button onclick = 'DoAnimation();'>Please click here for animation!</button>,1,testing.16,testing,None of the green circles,wugs.,none_false
4021,NA,,html-button-delay-response,24,200392,0.0-24.0,73yucnjz17,no training,,<div class='container2'><div class='ball'><div class='redline'></div> <div class='wug1a'></div><div class='wug2a'></div><div class='wug3a'></div><div class='wug4a'></div> </div><div class = 'ball2'></div></div><button onclick = 'DoAnimation();'>Please click here for animation!</button>,0,testing.15,testing,None of the green circles,wugs.,none_true_universal
8123,NA,,html-button-delay-response,25,209019,0.0-25.0,73yucnjz17,no training,,<div class='container2'><div class='ball'><div class='redline'></div> <div class='dot7'></div><div class='dot8'></div><div class='dot5'></div><div class='dot6'></div> </div><div class = 'ball2'></div></div><button onclick = 'DoAnimation();'>Please click here for animation!</button>,1,testing.20,testing,Every green circles,wugs.,all_true_no_projection
4658,NA,,html-button-delay-response,26,214180,0.0-26.0,73yucnjz17,no training,,<div class='container2'><div class='ball'><div class='redline'></div> <div class='wug1b'></div><div class='wug2b'></div><div class='wug3a'></div><div class='wug4a'></div> </div><div class = 'ball2'></div></div><button onclick = 'DoAnimation();'>Please click here for animation!</button>,1,testing.14,testing,Every green circle,wugs.,all_false
20115,none,demo.1,survey-dropdown,27,234803,0.0-27.0,73yucnjz17,no training,,,,,,,,
20115,none,demo.2,survey-dropdown,27,234803,0.0-27.0,73yucnjz17,no training,,,,,,,,
20115,female,demo.3,survey-dropdown,27,234803,0.0-27.0,73yucnjz17,no training,,,,,,,,
20115,12-24,demo.4,survey-dropdown,27,234803,0.0-27.0,73yucnjz17,no training,,,,,,,,
16559,5f7b64c45b829c111c86ef0e,ProlificID,survey-text,0,16566,0.0-0.0,nd221b5dgw,no training,,,,,,,,
158466,NA,instructions,instructions,1,175034,0.0-1.0,nd221b5dgw,no training,"[{""page_index"":0,""viewing_time"":158465}]",,,,,,,
14337,NA,,html-button-delay-response,2,189374,0.0-2.0,nd221b5dgw,no training,,<div class='container'><div class='ball_test'><div class='redline'></div> <div class='wug2'></div></div></div></div><button onclick = 'DoAnimation();'>Please click here for animation!</button>,0,teaching.2,teaching,The green circle,,
9022,NA,,html-button-delay-response,3,198901,0.0-3.0,nd221b5dgw,no training,,<div class='container'><div class='ball_test'><div class='redline'></div> <div class='wug1'></div></div></div></div><button onclick = 'DoAnimation();'>Please click here for animation!</button>,0,teaching.1,teaching,The green circle,,
5852,NA,,html-button-delay-response,4,205258,0.0-4.0,nd221b5dgw,no training,,<div class='container'><div class='ball_test'><div class='redline'></div> <div class='wug4'></div></div></div></div><button onclick = 'DoAnimation();'>Please click here for animation!</button>,0,teaching.4,teaching,The green circle,,
5872,NA,,html-button-delay-response,5,211632,0.0-5.0,nd221b5dgw,no training,,<div class='container'><div class='ball_test'><div class='redline'></div> <div class='wug3'></div></div></div></div><button onclick = 'DoAnimation();'>Please click here for animation!</button>,0,teaching.3,teaching,The green circle,,
11187,NA,break,html-button-response,6,223322,0.0-6.0,nd221b5dgw,no training,,"<p style='text-align:center'>Now, let's see how <b>you</b> use <i>wug</i>!</p> <p style='text-align:center'> You will see two animations but only one of them is visible, the other hidden.  Your task is to decide whether the sentence you will see describes the visible animation or the hidden animation. You should choose the hidden scenario if you consider the visible one inappropriate given the sentence you will see. </p>",0,,,,,
9636,NA,,html-button-delay-response,7,232960,0.0-7.0,nd221b5dgw,no training,,<div class='container2'><div class='ball'><div class='redline'></div> <div class='wug4b'></div> </div><div class = 'ball2'></div></div><button onclick = 'DoAnimation();'>Please click here for animation!</button>,0,testing.4,testing,The green circle,wugs.,notAB
3867,NA,,html-button-delay-response,8,237331,0.0-8.0,nd221b5dgw,no training,,<div class='container2'><div class='ball'><div class='redline'></div> <div class='wug3b'></div> </div><div class = 'ball2'></div></div><button onclick = 'DoAnimation();'>Please click here for animation!</button>,1,testing.3,testing,The green circle,does not wug.,notAB
5862,NA,,html-button-delay-response,9,243697,0.0-9.0,nd221b5dgw,no training,,<div class='container2'><div class='ball'><div class='redline'></div> <div class='wug1'></div> </div><div class = 'ball2'></div></div><button onclick = 'DoAnimation();'>Please click here for animation!</button>,1,testing.1,testing,The green circle,does not wug.,AB
6429,NA,,html-button-delay-response,10,250628,0.0-10.0,nd221b5dgw,no training,,<div class='container2'><div class='ball'><div class='redline'></div> <div class='wug2'></div> </div><div class = 'ball2'></div></div><button onclick = 'DoAnimation();'>Please click here for animation!</button>,0,testing.2,testing,The green circle,wugs.,AB
9707,NA,,html-button-delay-response,11,260839,0.0-11.0,nd221b5dgw,no training,,<div class='container2'><div class='ball'><div class='redline'></div> <div class='dot2'></div> </div><div class = 'ball2'></div></div><button onclick = 'DoAnimation();'>Please click here for animation!</button>,0,testing.5,testing,The green circle,wugs.,AnotB
3633,NA,,html-button-delay-response,12,264976,0.0-12.0,nd221b5dgw,no training,,<div class='container2'><div class='ball'><div class='redline'></div> <div class='dot1a'></div> </div><div class = 'ball2'></div></div><button onclick = 'DoAnimation();'>Please click here for animation!</button>,0,testing.11,testing,The green circle,wugs.,notAnotB
3739,NA,,html-button-delay-response,13,269216,0.0-13.0,nd221b5dgw,no training,,<div class='container2'><div class='ball'><div class='redline'></div> <div class='dot1'></div> </div><div class = 'ball2'></div></div><button onclick = 'DoAnimation();'>Please click here for animation!</button>,0,testing.7,testing,The green circle,wugs.,AnotB
3947,NA,,html-button-delay-response,14,273666,0.0-14.0,nd221b5dgw,no training,,<div class='container2'><div class='ball'><div class='redline'></div> <div class='dot3'></div> </div><div class = 'ball2'></div></div><button onclick = 'DoAnimation();'>Please click here for animation!</button>,1,testing.6,testing,The green circle,does not wug.,AnotB
3128,NA,,html-button-delay-response,15,277297,0.0-15.0,nd221b5dgw,no training,,<div class='container2'><div class='ball'><div class='redline'></div> <div class='dot4a'></div> </div><div class = 'ball2'></div></div><button onclick = 'DoAnimation();'>Please click here for animation!</button>,1,testing.12,testing,The green circle,does not wug.,notAnotB
3072,NA,,html-button-delay-response,16,280872,0.0-16.0,nd221b5dgw,no training,,<div class='container2'><div class='ball'><div class='redline'></div> <div class='dot3a'></div> </div><div class = 'ball2'></div></div><button onclick = 'DoAnimation();'>Please click here for animation!</button>,1,testing.10,testing,The green circle,does not wug.,notAnotB
10098,NA,,html-button-delay-response,17,291473,0.0-17.0,nd221b5dgw,no training,,<div class='container2'><div class='ball'><div class='redline'></div> <div class='dot4'></div> </div><div class = 'ball2'></div></div><button onclick = 'DoAnimation();'>Please click here for animation!</button>,1,testing.8,testing,The green circle,does not wug.,AnotB
3064,NA,,html-button-delay-response,18,295041,0.0-18.0,nd221b5dgw,no training,,<div class='container2'><div class='ball'><div class='redline'></div> <div class='dot2a'></div> </div><div class = 'ball2'></div></div><button onclick = 'DoAnimation();'>Please click here for animation!</button>,0,testing.9,testing,The green circle,wugs.,notAnotB
5465,NA,,html-button-delay-response,19,301009,0.0-19.0,nd221b5dgw,no training,,<div class='container2'><div class='ball'><div class='redline'></div> <div class='wug1b'></div><div class='wug2b'></div><div class='wug3a'></div><div class='wug4a'></div> </div><div class = 'ball2'></div></div><button onclick = 'DoAnimation();'>Please click here for animation!</button>,0,testing.14,testing,Every green circle,wugs.,all_false
3552,NA,,html-button-delay-response,20,305065,0.0-20.0,nd221b5dgw,no training,,<div class='container2'><div class='ball'><div class='redline'></div> <div class='wug1a'></div><div class='wug2a'></div><div class='wug3a'></div><div class='wug4a'></div> </div><div class = 'ball2'></div></div><button onclick = 'DoAnimation();'>Please click here for animation!</button>,1,testing.15,testing,None of the green circles,wugs.,none_true_universal
61555,NA,,html-button-delay-response,21,367122,0.0-21.0,nd221b5dgw,no training,,<div class='container2'><div class='ball'><div class='redline'></div> <div class='wug1a'></div><div class='dot2a'></div><div class='wug3a'></div><div class='wug4a'></div> </div><div class = 'ball2'></div></div><button onclick = 'DoAnimation();'>Please click here for animation!</button>,1,testing.18,testing,None of the green circles,wugs.,none_true_existential
4151,NA,,html-button-delay-response,22,371775,0.0-22.0,nd221b5dgw,no training,,<div class='container2'><div class='ball'><div class='redline'></div> <div class='wug1a'></div><div class='wug2b'></div><div class='wug3a'></div><div class='wug4b'></div> </div><div class = 'ball2'></div></div><button onclick = 'DoAnimation();'>Please click here for animation!</button>,1,testing.16,testing,None of the green circles,wugs.,none_false
5928,NA,,html-button-delay-response,23,378207,0.0-23.0,nd221b5dgw,no training,,<div class='container2'><div class='ball'><div class='redline'></div> <div class='wug1b'></div><div class='wug2b'></div><div class='wug3b'></div><div class='wug4b'></div> </div><div class = 'ball2'></div></div><button onclick = 'DoAnimation();'>Please click here for animation!</button>,1,testing.13,testing,Every green circle,wugs.,all_true_universal
4887,NA,,html-button-delay-response,24,383596,0.0-24.0,nd221b5dgw,no training,,<div class='container2'><div class='ball'><div class='redline'></div> <div class='dot7'></div><div class='dot8'></div><div class='dot5'></div><div class='dot6'></div> </div><div class = 'ball2'></div></div><button onclick = 'DoAnimation();'>Please click here for animation!</button>,1,testing.20,testing,Every green circles,wugs.,all_true_no_projection
8906,NA,,html-button-delay-response,25,393005,0.0-25.0,nd221b5dgw,no training,,<div class='container2'><div class='ball'><div class='redline'></div> <div class='wug1b'></div><div class='wug2b'></div><div class='dot3b'></div><div class='wug4b'></div> </div><div class = 'ball2'></div></div><button onclick = 'DoAnimation();'>Please click here for animation!</button>,0,testing.17,testing,Every green circle,wugs.,all_true_existential
6164,NA,,html-button-delay-response,26,399671,0.0-26.0,nd221b5dgw,no training,,<div class='container2'><div class='ball'><div class='redline'></div> <div class='dot1a'></div><div class='dot2a'></div><div class='dot3b'></div><div class='dot4b'></div> </div><div class = 'ball2'></div></div><button onclick = 'DoAnimation();'>Please click here for animation!</button>,1,testing.19,testing,None of the green circles,wugs.,none_true_no_projection
18516,1ug,demo.1,survey-dropdown,27,418696,0.0-27.0,nd221b5dgw,no training,,,,,,,,
18516,1ug,demo.2,survey-dropdown,27,418696,0.0-27.0,nd221b5dgw,no training,,,,,,,,
18516,male,demo.3,survey-dropdown,27,418696,0.0-27.0,nd221b5dgw,no training,,,,,,,,
18516,12-24,demo.4,survey-dropdown,27,418696,0.0-27.0,nd221b5dgw,no training,,,,,,,,
5388,5c438ecd81cc58000186f09d,ProlificID,survey-text,0,5392,0.0-0.0,fr16g26x3r,no training,,,,,,,,
2710,NA,instructions,instructions,1,8103,0.0-1.0,fr16g26x3r,no training,"[{""page_index"":0,""viewing_time"":2710}]",,,,,,,
7280,NA,,html-button-delay-response,2,15386,0.0-2.0,fr16g26x3r,no training,,<div class='container'><div class='ball_test'><div class='redline'></div> <div class='wug4'></div></div></div></div><button onclick = 'DoAnimation();'>Please click here for animation!</button>,0,teaching.4,teaching,The green circle,,
5041,NA,,html-button-delay-response,3,20930,0.0-3.0,fr16g26x3r,no training,,<div class='container'><div class='ball_test'><div class='redline'></div> <div class='wug1'></div></div></div></div><button onclick = 'DoAnimation();'>Please click here for animation!</button>,0,teaching.1,teaching,The green circle,,
3561,NA,,html-button-delay-response,4,24993,0.0-4.0,fr16g26x3r,no training,,<div class='container'><div class='ball_test'><div class='redline'></div> <div class='wug2'></div></div></div></div><button onclick = 'DoAnimation();'>Please click here for animation!</button>,0,teaching.2,teaching,The green circle,,
4059,NA,,html-button-delay-response,5,29555,0.0-5.0,fr16g26x3r,no training,,<div class='container'><div class='ball_test'><div class='redline'></div> <div class='wug3'></div></div></div></div><button onclick = 'DoAnimation();'>Please click here for animation!</button>,0,teaching.3,teaching,The green circle,,
10562,NA,break,html-button-response,6,40620,0.0-6.0,fr16g26x3r,no training,,"<p style='text-align:center'>Now, let's see how <b>you</b> use <i>wug</i>!</p> <p style='text-align:center'> You will see two animations but only one of them is visible, the other hidden.  Your task is to decide whether the sentence you will see describes the visible animation or the hidden animation. You should choose the hidden scenario if you consider the visible one inappropriate given the sentence you will see. </p>",0,,,,,
7793,NA,,html-button-delay-response,7,48414,0.0-7.0,fr16g26x3r,no training,,<div class='container2'><div class='ball'><div class='redline'></div> <div class='wug1'></div> </div><div class = 'ball2'></div></div><button onclick = 'DoAnimation();'>Please click here for animation!</button>,1,testing.1,testing,The green circle,does not wug.,AB
6177,NA,,html-button-delay-response,8,55095,0.0-8.0,fr16g26x3r,no training,,<div class='container2'><div class='ball'><div class='redline'></div> <div class='wug4b'></div> </div><div class = 'ball2'></div></div><button onclick = 'DoAnimation();'>Please click here for animation!</button>,1,testing.4,testing,The green circle,wugs.,notAB
3576,NA,,html-button-delay-response,9,59174,0.0-9.0,fr16g26x3r,no training,,<div class='container2'><div class='ball'><div class='redline'></div> <div class='wug2'></div> </div><div class = 'ball2'></div></div><button onclick = 'DoAnimation();'>Please click here for animation!</button>,0,testing.2,testing,The green circle,wugs.,AB
3514,NA,,html-button-delay-response,10,63191,0.0-10.0,fr16g26x3r,no training,,<div class='container2'><div class='ball'><div class='redline'></div> <div class='wug3b'></div> </div><div class = 'ball2'></div></div><button onclick = 'DoAnimation();'>Please click here for animation!</button>,0,testing.3,testing,The green circle,does not wug.,notAB
2905,NA,,html-button-delay-response,11,66599,0.0-11.0,fr16g26x3r,no training,,<div class='container2'><div class='ball'><div class='redline'></div> <div class='dot3'></div> </div><div class = 'ball2'></div></div><button onclick = 'DoAnimation();'>Please click here for animation!</button>,1,testing.6,testing,The green circle,does not wug.,AnotB
3411,NA,,html-button-delay-response,12,70512,0.0-12.0,fr16g26x3r,no training,,<div class='container2'><div class='ball'><div class='redline'></div> <div class='dot3a'></div> </div><div class = 'ball2'></div></div><button onclick = 'DoAnimation();'>Please click here for animation!</button>,0,testing.10,testing,The green circle,does not wug.,notAnotB
3893,NA,,html-button-delay-response,13,74909,0.0-13.0,fr16g26x3r,no training,,<div class='container2'><div class='ball'><div class='redline'></div> <div class='dot2a'></div> </div><div class = 'ball2'></div></div><button onclick = 'DoAnimation();'>Please click here for animation!</button>,1,testing.9,testing,The green circle,wugs.,notAnotB
3289,NA,,html-button-delay-response,14,78701,0.0-14.0,fr16g26x3r,no training,,<div class='container2'><div class='ball'><div class='redline'></div> <div class='dot4a'></div> </div><div class = 'ball2'></div></div><button onclick = 'DoAnimation();'>Please click here for animation!</button>,0,testing.12,testing,The green circle,does not wug.,notAnotB
3056,NA,,html-button-delay-response,15,82259,0.0-15.0,fr16g26x3r,no training,,<div class='container2'><div class='ball'><div class='redline'></div> <div class='dot4'></div> </div><div class = 'ball2'></div></div><button onclick = 'DoAnimation();'>Please click here for animation!</button>,0,testing.8,testing,The green circle,does not wug.,AnotB
3736,NA,,html-button-delay-response,16,86498,0.0-16.0,fr16g26x3r,no training,,<div class='container2'><div class='ball'><div class='redline'></div> <div class='dot1'></div> </div><div class = 'ball2'></div></div><button onclick = 'DoAnimation();'>Please click here for animation!</button>,1,testing.7,testing,The green circle,wugs.,AnotB
3025,NA,,html-button-delay-response,17,90026,0.0-17.0,fr16g26x3r,no training,,<div class='container2'><div class='ball'><div class='redline'></div> <div class='dot1a'></div> </div><div class = 'ball2'></div></div><button onclick = 'DoAnimation();'>Please click here for animation!</button>,1,testing.11,testing,The green circle,wugs.,notAnotB
3642,NA,,html-button-delay-response,18,94171,0.0-18.0,fr16g26x3r,no training,,<div class='container2'><div class='ball'><div class='redline'></div> <div class='dot2'></div> </div><div class = 'ball2'></div></div><button onclick = 'DoAnimation();'>Please click here for animation!</button>,1,testing.5,testing,The green circle,wugs.,AnotB
5332,NA,,html-button-delay-response,19,100007,0.0-19.0,fr16g26x3r,no training,,<div class='container2'><div class='ball'><div class='redline'></div> <div class='wug1a'></div><div class='wug2b'></div><div class='wug3a'></div><div class='wug4b'></div> </div><div class = 'ball2'></div></div><button onclick = 'DoAnimation();'>Please click here for animation!</button>,1,testing.16,testing,None of the green circles,wugs.,none_false
3377,NA,,html-button-delay-response,20,103887,0.0-20.0,fr16g26x3r,no training,,<div class='container2'><div class='ball'><div class='redline'></div> <div class='wug1b'></div><div class='wug2b'></div><div class='dot3b'></div><div class='wug4b'></div> </div><div class = 'ball2'></div></div><button onclick = 'DoAnimation();'>Please click here for animation!</button>,0,testing.17,testing,Every green circle,wugs.,all_true_existential
3152,NA,,html-button-delay-response,21,107542,0.0-21.0,fr16g26x3r,no training,,<div class='container2'><div class='ball'><div class='redline'></div> <div class='wug1b'></div><div class='wug2b'></div><div class='wug3a'></div><div class='wug4a'></div> </div><div class = 'ball2'></div></div><button onclick = 'DoAnimation();'>Please click here for animation!</button>,1,testing.14,testing,Every green circle,wugs.,all_false
4050,NA,,html-button-delay-response,22,112095,0.0-22.0,fr16g26x3r,no training,,<div class='container2'><div class='ball'><div class='redline'></div> <div class='wug1a'></div><div class='dot2a'></div><div class='wug3a'></div><div class='wug4a'></div> </div><div class = 'ball2'></div></div><button onclick = 'DoAnimation();'>Please click here for animation!</button>,0,testing.18,testing,None of the green circles,wugs.,none_true_existential
2939,NA,,html-button-delay-response,23,115537,0.0-23.0,fr16g26x3r,no training,,<div class='container2'><div class='ball'><div class='redline'></div> <div class='wug1a'></div><div class='wug2a'></div><div class='wug3a'></div><div class='wug4a'></div> </div><div class = 'ball2'></div></div><button onclick = 'DoAnimation();'>Please click here for animation!</button>,0,testing.15,testing,None of the green circles,wugs.,none_true_universal
4246,NA,,html-button-delay-response,24,120285,0.0-24.0,fr16g26x3r,no training,,<div class='container2'><div class='ball'><div class='redline'></div> <div class='dot1a'></div><div class='dot2a'></div><div class='dot3b'></div><div class='dot4b'></div> </div><div class = 'ball2'></div></div><button onclick = 'DoAnimation();'>Please click here for animation!</button>,0,testing.19,testing,None of the green circles,wugs.,none_true_no_projection
2738,NA,,html-button-delay-response,25,123526,0.0-25.0,fr16g26x3r,no training,,<div class='container2'><div class='ball'><div class='redline'></div> <div class='wug1b'></div><div class='wug2b'></div><div class='wug3b'></div><div class='wug4b'></div> </div><div class = 'ball2'></div></div><button onclick = 'DoAnimation();'>Please click here for animation!</button>,0,testing.13,testing,Every green circle,wugs.,all_true_universal
3944,NA,,html-button-delay-response,26,127973,0.0-26.0,fr16g26x3r,no training,,<div class='container2'><div class='ball'><div class='redline'></div> <div class='dot7'></div><div class='dot8'></div><div class='dot5'></div><div class='dot6'></div> </div><div class = 'ball2'></div></div><button onclick = 'DoAnimation();'>Please click here for animation!</button>,0,testing.20,testing,Every green circles,wugs.,all_true_no_projection
16150,1ug,demo.1,survey-dropdown,27,144633,0.0-27.0,fr16g26x3r,no training,,,,,,,,
16150,none,demo.2,survey-dropdown,27,144633,0.0-27.0,fr16g26x3r,no training,,,,,,,,
16150,male,demo.3,survey-dropdown,27,144633,0.0-27.0,fr16g26x3r,no training,,,,,,,,
16150,12-24,demo.4,survey-dropdown,27,144633,0.0-27.0,fr16g26x3r,no training,,,,,,,,
8847,5f83439c29a6a64ad16a0c74,ProlificID,survey-text,0,8849,0.0-0.0,fgh760uvet,no training,,,,,,,,
1856,NA,instructions,instructions,1,10705,0.0-1.0,fgh760uvet,no training,"[{""page_index"":0,""viewing_time"":1855}]",,,,,,,
6045,NA,,html-button-delay-response,2,16753,0.0-2.0,fgh760uvet,no training,,<div class='container'><div class='ball_test'><div class='redline'></div> <div class='wug1'></div></div></div></div><button onclick = 'DoAnimation();'>Please click here for animation!</button>,0,teaching.1,teaching,The green circle,,
5586,NA,,html-button-delay-response,3,22842,0.0-3.0,fgh760uvet,no training,,<div class='container'><div class='ball_test'><div class='redline'></div> <div class='wug2'></div></div></div></div><button onclick = 'DoAnimation();'>Please click here for animation!</button>,0,teaching.2,teaching,The green circle,,
3709,NA,,html-button-delay-response,4,27055,0.0-4.0,fgh760uvet,no training,,<div class='container'><div class='ball_test'><div class='redline'></div> <div class='wug4'></div></div></div></div><button onclick = 'DoAnimation();'>Please click here for animation!</button>,0,teaching.4,teaching,The green circle,,
3852,NA,,html-button-delay-response,5,31409,0.0-5.0,fgh760uvet,no training,,<div class='container'><div class='ball_test'><div class='redline'></div> <div class='wug3'></div></div></div></div><button onclick = 'DoAnimation();'>Please click here for animation!</button>,0,teaching.3,teaching,The green circle,,
10234,NA,break,html-button-response,6,42144,0.0-6.0,fgh760uvet,no training,,"<p style='text-align:center'>Now, let's see how <b>you</b> use <i>wug</i>!</p> <p style='text-align:center'> You will see two animations but only one of them is visible, the other hidden.  Your task is to decide whether the sentence you will see describes the visible animation or the hidden animation. You should choose the hidden scenario if you consider the visible one inappropriate given the sentence you will see. </p>",0,,,,,
5879,NA,,html-button-delay-response,7,48024,0.0-7.0,fgh760uvet,no training,,<div class='container2'><div class='ball'><div class='redline'></div> <div class='wug3b'></div> </div><div class = 'ball2'></div></div><button onclick = 'DoAnimation();'>Please click here for animation!</button>,0,testing.3,testing,The green circle,does not wug.,notAB
4371,NA,,html-button-delay-response,8,52899,0.0-8.0,fgh760uvet,no training,,<div class='container2'><div class='ball'><div class='redline'></div> <div class='wug1'></div> </div><div class = 'ball2'></div></div><button onclick = 'DoAnimation();'>Please click here for animation!</button>,0,testing.1,testing,The green circle,does not wug.,AB
8137,NA,,html-button-delay-response,9,61536,0.0-9.0,fgh760uvet,no training,,<div class='container2'><div class='ball'><div class='redline'></div> <div class='wug4b'></div> </div><div class = 'ball2'></div></div><button onclick = 'DoAnimation();'>Please click here for animation!</button>,1,testing.4,testing,The green circle,wugs.,notAB
2946,NA,,html-button-delay-response,10,64985,0.0-10.0,fgh760uvet,no training,,<div class='container2'><div class='ball'><div class='redline'></div> <div class='wug2'></div> </div><div class = 'ball2'></div></div><button onclick = 'DoAnimation();'>Please click here for animation!</button>,0,testing.2,testing,The green circle,wugs.,AB
2808,NA,,html-button-delay-response,11,68297,0.0-11.0,fgh760uvet,no training,,<div class='container2'><div class='ball'><div class='redline'></div> <div class='dot1a'></div> </div><div class = 'ball2'></div></div><button onclick = 'DoAnimation();'>Please click here for animation!</button>,1,testing.11,testing,The green circle,wugs.,notAnotB
2819,NA,,html-button-delay-response,12,71618,0.0-12.0,fgh760uvet,no training,,<div class='container2'><div class='ball'><div class='redline'></div> <div class='dot2'></div> </div><div class = 'ball2'></div></div><button onclick = 'DoAnimation();'>Please click here for animation!</button>,1,testing.5,testing,The green circle,wugs.,AnotB
3240,NA,,html-button-delay-response,13,75360,0.0-13.0,fgh760uvet,no training,,<div class='container2'><div class='ball'><div class='redline'></div> <div class='dot1'></div> </div><div class = 'ball2'></div></div><button onclick = 'DoAnimation();'>Please click here for animation!</button>,1,testing.7,testing,The green circle,wugs.,AnotB
4089,NA,,html-button-delay-response,14,79951,0.0-14.0,fgh760uvet,no training,,<div class='container2'><div class='ball'><div class='redline'></div> <div class='dot3a'></div> </div><div class = 'ball2'></div></div><button onclick = 'DoAnimation();'>Please click here for animation!</button>,1,testing.10,testing,The green circle,does not wug.,notAnotB
2914,NA,,html-button-delay-response,15,83368,0.0-15.0,fgh760uvet,no training,,<div class='container2'><div class='ball'><div class='redline'></div> <div class='dot3'></div> </div><div class = 'ball2'></div></div><button onclick = 'DoAnimation();'>Please click here for animation!</button>,1,testing.6,testing,The green circle,does not wug.,AnotB
2873,NA,,html-button-delay-response,16,86744,0.0-16.0,fgh760uvet,no training,,<div class='container2'><div class='ball'><div class='redline'></div> <div class='dot2a'></div> </div><div class = 'ball2'></div></div><button onclick = 'DoAnimation();'>Please click here for animation!</button>,1,testing.9,testing,The green circle,wugs.,notAnotB
3650,NA,,html-button-delay-response,17,90896,0.0-17.0,fgh760uvet,no training,,<div class='container2'><div class='ball'><div class='redline'></div> <div class='dot4a'></div> </div><div class = 'ball2'></div></div><button onclick = 'DoAnimation();'>Please click here for animation!</button>,1,testing.12,testing,The green circle,does not wug.,notAnotB
6114,NA,,html-button-delay-response,18,97511,0.0-18.0,fgh760uvet,no training,,<div class='container2'><div class='ball'><div class='redline'></div> <div class='dot4'></div> </div><div class = 'ball2'></div></div><button onclick = 'DoAnimation();'>Please click here for animation!</button>,0,testing.8,testing,The green circle,does not wug.,AnotB
8854,NA,,html-button-delay-response,19,106868,0.0-19.0,fgh760uvet,no training,,<div class='container2'><div class='ball'><div class='redline'></div> <div class='wug1a'></div><div class='dot2a'></div><div class='wug3a'></div><div class='wug4a'></div> </div><div class = 'ball2'></div></div><button onclick = 'DoAnimation();'>Please click here for animation!</button>,0,testing.18,testing,None of the green circles,wugs.,none_true_existential
4814,NA,,html-button-delay-response,20,112185,0.0-20.0,fgh760uvet,no training,,<div class='container2'><div class='ball'><div class='redline'></div> <div class='wug1b'></div><div class='wug2b'></div><div class='dot3b'></div><div class='wug4b'></div> </div><div class = 'ball2'></div></div><button onclick = 'DoAnimation();'>Please click here for animation!</button>,1,testing.17,testing,Every green circle,wugs.,all_true_existential
3444,NA,,html-button-delay-response,21,116130,0.0-21.0,fgh760uvet,no training,,<div class='container2'><div class='ball'><div class='redline'></div> <div class='wug1b'></div><div class='wug2b'></div><div class='wug3b'></div><div class='wug4b'></div> </div><div class = 'ball2'></div></div><button onclick = 'DoAnimation();'>Please click here for animation!</button>,0,testing.13,testing,Every green circle,wugs.,all_true_universal
4168,NA,,html-button-delay-response,22,120800,0.0-22.0,fgh760uvet,no training,,<div class='container2'><div class='ball'><div class='redline'></div> <div class='dot1a'></div><div class='dot2a'></div><div class='dot3b'></div><div class='dot4b'></div> </div><div class = 'ball2'></div></div><button onclick = 'DoAnimation();'>Please click here for animation!</button>,0,testing.19,testing,None of the green circles,wugs.,none_true_no_projection
4692,NA,,html-button-delay-response,23,125994,0.0-23.0,fgh760uvet,no training,,<div class='container2'><div class='ball'><div class='redline'></div> <div class='wug1b'></div><div class='wug2b'></div><div class='wug3a'></div><div class='wug4a'></div> </div><div class = 'ball2'></div></div><button onclick = 'DoAnimation();'>Please click here for animation!</button>,1,testing.14,testing,Every green circle,wugs.,all_false
3033,NA,,html-button-delay-response,24,129529,0.0-24.0,fgh760uvet,no training,,<div class='container2'><div class='ball'><div class='redline'></div> <div class='dot7'></div><div class='dot8'></div><div class='dot5'></div><div class='dot6'></div> </div><div class = 'ball2'></div></div><button onclick = 'DoAnimation();'>Please click here for animation!</button>,1,testing.20,testing,Every green circles,wugs.,all_true_no_projection
4328,NA,,html-button-delay-response,25,134360,0.0-25.0,fgh760uvet,no training,,<div class='container2'><div class='ball'><div class='redline'></div> <div class='wug1a'></div><div class='wug2b'></div><div class='wug3a'></div><div class='wug4b'></div> </div><div class = 'ball2'></div></div><button onclick = 'DoAnimation();'>Please click here for animation!</button>,1,testing.16,testing,None of the green circles,wugs.,none_false
3689,NA,,html-button-delay-response,26,138552,0.0-26.0,fgh760uvet,no training,,<div class='container2'><div class='ball'><div class='redline'></div> <div class='wug1a'></div><div class='wug2a'></div><div class='wug3a'></div><div class='wug4a'></div> </div><div class = 'ball2'></div></div><button onclick = 'DoAnimation();'>Please click here for animation!</button>,0,testing.15,testing,None of the green circles,wugs.,none_true_universal
13296,none,demo.1,survey-dropdown,27,152353,0.0-27.0,fgh760uvet,no training,,,,,,,,
13296,none,demo.2,survey-dropdown,27,152353,0.0-27.0,fgh760uvet,no training,,,,,,,,
13296,female,demo.3,survey-dropdown,27,152353,0.0-27.0,fgh760uvet,no training,,,,,,,,
13296,12-24,demo.4,survey-dropdown,27,152353,0.0-27.0,fgh760uvet,no training,,,,,,,,
3594,5c766a65023c2f0001a0a7a6,ProlificID,survey-text,0,3596,0.0-0.0,gfeqy0t2et,no training,,,,,,,,
3343,NA,instructions,instructions,1,6940,0.0-1.0,gfeqy0t2et,no training,"[{""page_index"":0,""viewing_time"":3341}]",,,,,,,
11533,NA,,html-button-delay-response,2,18478,0.0-2.0,gfeqy0t2et,no training,,<div class='container'><div class='ball_test'><div class='redline'></div> <div class='wug2'></div></div></div></div><button onclick = 'DoAnimation();'>Please click here for animation!</button>,0,teaching.2,teaching,The green circle,,
8789,NA,,html-button-delay-response,3,27769,0.0-3.0,gfeqy0t2et,no training,,<div class='container'><div class='ball_test'><div class='redline'></div> <div class='wug1'></div></div></div></div><button onclick = 'DoAnimation();'>Please click here for animation!</button>,0,teaching.1,teaching,The green circle,,
5622,NA,,html-button-delay-response,4,33894,0.0-4.0,gfeqy0t2et,no training,,<div class='container'><div class='ball_test'><div class='redline'></div> <div class='wug3'></div></div></div></div><button onclick = 'DoAnimation();'>Please click here for animation!</button>,0,teaching.3,teaching,The green circle,,
4375,NA,,html-button-delay-response,5,38772,0.0-5.0,gfeqy0t2et,no training,,<div class='container'><div class='ball_test'><div class='redline'></div> <div class='wug4'></div></div></div></div><button onclick = 'DoAnimation();'>Please click here for animation!</button>,0,teaching.4,teaching,The green circle,,
11455,NA,break,html-button-response,6,50730,0.0-6.0,gfeqy0t2et,no training,,"<p style='text-align:center'>Now, let's see how <b>you</b> use <i>wug</i>!</p> <p style='text-align:center'> You will see two animations but only one of them is visible, the other hidden.  Your task is to decide whether the sentence you will see describes the visible animation or the hidden animation. You should choose the hidden scenario if you consider the visible one inappropriate given the sentence you will see. </p>",0,,,,,
6335,NA,,html-button-delay-response,7,57067,0.0-7.0,gfeqy0t2et,no training,,<div class='container2'><div class='ball'><div class='redline'></div> <div class='wug2'></div> </div><div class = 'ball2'></div></div><button onclick = 'DoAnimation();'>Please click here for animation!</button>,0,testing.2,testing,The green circle,wugs.,AB
5792,NA,,html-button-delay-response,8,63363,0.0-8.0,gfeqy0t2et,no training,,<div class='container2'><div class='ball'><div class='redline'></div> <div class='wug3b'></div> </div><div class = 'ball2'></div></div><button onclick = 'DoAnimation();'>Please click here for animation!</button>,0,testing.3,testing,The green circle,does not wug.,notAB
5248,NA,,html-button-delay-response,9,69114,0.0-9.0,gfeqy0t2et,no training,,<div class='container2'><div class='ball'><div class='redline'></div> <div class='wug1'></div> </div><div class = 'ball2'></div></div><button onclick = 'DoAnimation();'>Please click here for animation!</button>,1,testing.1,testing,The green circle,does not wug.,AB
3737,NA,,html-button-delay-response,10,73354,0.0-10.0,gfeqy0t2et,no training,,<div class='container2'><div class='ball'><div class='redline'></div> <div class='wug4b'></div> </div><div class = 'ball2'></div></div><button onclick = 'DoAnimation();'>Please click here for animation!</button>,1,testing.4,testing,The green circle,wugs.,notAB
3920,NA,,html-button-delay-response,11,77777,0.0-11.0,gfeqy0t2et,no training,,<div class='container2'><div class='ball'><div class='redline'></div> <div class='dot4'></div> </div><div class = 'ball2'></div></div><button onclick = 'DoAnimation();'>Please click here for animation!</button>,1,testing.8,testing,The green circle,does not wug.,AnotB
5145,NA,,html-button-delay-response,12,83424,0.0-12.0,gfeqy0t2et,no training,,<div class='container2'><div class='ball'><div class='redline'></div> <div class='dot1'></div> </div><div class = 'ball2'></div></div><button onclick = 'DoAnimation();'>Please click here for animation!</button>,0,testing.7,testing,The green circle,wugs.,AnotB
5420,NA,,html-button-delay-response,13,89347,0.0-13.0,gfeqy0t2et,no training,,<div class='container2'><div class='ball'><div class='redline'></div> <div class='dot1a'></div> </div><div class = 'ball2'></div></div><button onclick = 'DoAnimation();'>Please click here for animation!</button>,1,testing.11,testing,The green circle,wugs.,notAnotB
5610,NA,,html-button-delay-response,14,95459,0.0-14.0,gfeqy0t2et,no training,,<div class='container2'><div class='ball'><div class='redline'></div> <div class='dot3'></div> </div><div class = 'ball2'></div></div><button onclick = 'DoAnimation();'>Please click here for animation!</button>,1,testing.6,testing,The green circle,does not wug.,AnotB
4212,NA,,html-button-delay-response,15,100174,0.0-15.0,gfeqy0t2et,no training,,<div class='container2'><div class='ball'><div class='redline'></div> <div class='dot2'></div> </div><div class = 'ball2'></div></div><button onclick = 'DoAnimation();'>Please click here for animation!</button>,0,testing.5,testing,The green circle,wugs.,AnotB
4766,NA,,html-button-delay-response,16,105444,0.0-16.0,gfeqy0t2et,no training,,<div class='container2'><div class='ball'><div class='redline'></div> <div class='dot3a'></div> </div><div class = 'ball2'></div></div><button onclick = 'DoAnimation();'>Please click here for animation!</button>,0,testing.10,testing,The green circle,does not wug.,notAnotB
4054,NA,,html-button-delay-response,17,110001,0.0-17.0,gfeqy0t2et,no training,,<div class='container2'><div class='ball'><div class='redline'></div> <div class='dot2a'></div> </div><div class = 'ball2'></div></div><button onclick = 'DoAnimation();'>Please click here for animation!</button>,1,testing.9,testing,The green circle,wugs.,notAnotB
4395,NA,,html-button-delay-response,18,114900,0.0-18.0,gfeqy0t2et,no training,,<div class='container2'><div class='ball'><div class='redline'></div> <div class='dot4a'></div> </div><div class = 'ball2'></div></div><button onclick = 'DoAnimation();'>Please click here for animation!</button>,0,testing.12,testing,The green circle,does not wug.,notAnotB
8116,NA,,html-button-delay-response,19,123518,0.0-19.0,gfeqy0t2et,no training,,<div class='container2'><div class='ball'><div class='redline'></div> <div class='dot1a'></div><div class='dot2a'></div><div class='dot3b'></div><div class='dot4b'></div> </div><div class = 'ball2'></div></div><button onclick = 'DoAnimation();'>Please click here for animation!</button>,0,testing.19,testing,None of the green circles,wugs.,none_true_no_projection
6212,NA,,html-button-delay-response,20,130233,0.0-20.0,gfeqy0t2et,no training,,<div class='container2'><div class='ball'><div class='redline'></div> <div class='wug1a'></div><div class='wug2a'></div><div class='wug3a'></div><div class='wug4a'></div> </div><div class = 'ball2'></div></div><button onclick = 'DoAnimation();'>Please click here for animation!</button>,0,testing.15,testing,None of the green circles,wugs.,none_true_universal
4682,NA,,html-button-delay-response,21,135418,0.0-21.0,gfeqy0t2et,no training,,<div class='container2'><div class='ball'><div class='redline'></div> <div class='wug1a'></div><div class='dot2a'></div><div class='wug3a'></div><div class='wug4a'></div> </div><div class = 'ball2'></div></div><button onclick = 'DoAnimation();'>Please click here for animation!</button>,0,testing.18,testing,None of the green circles,wugs.,none_true_existential
7447,NA,,html-button-delay-response,22,143368,0.0-22.0,gfeqy0t2et,no training,,<div class='container2'><div class='ball'><div class='redline'></div> <div class='wug1a'></div><div class='wug2b'></div><div class='wug3a'></div><div class='wug4b'></div> </div><div class = 'ball2'></div></div><button onclick = 'DoAnimation();'>Please click here for animation!</button>,1,testing.16,testing,None of the green circles,wugs.,none_false
4748,NA,,html-button-delay-response,23,148618,0.0-23.0,gfeqy0t2et,no training,,<div class='container2'><div class='ball'><div class='redline'></div> <div class='dot7'></div><div class='dot8'></div><div class='dot5'></div><div class='dot6'></div> </div><div class = 'ball2'></div></div><button onclick = 'DoAnimation();'>Please click here for animation!</button>,0,testing.20,testing,Every green circles,wugs.,all_true_no_projection
3897,NA,,html-button-delay-response,24,153017,0.0-24.0,gfeqy0t2et,no training,,<div class='container2'><div class='ball'><div class='redline'></div> <div class='wug1b'></div><div class='wug2b'></div><div class='wug3a'></div><div class='wug4a'></div> </div><div class = 'ball2'></div></div><button onclick = 'DoAnimation();'>Please click here for animation!</button>,1,testing.14,testing,Every green circle,wugs.,all_false
3325,NA,,html-button-delay-response,25,156845,0.0-25.0,gfeqy0t2et,no training,,<div class='container2'><div class='ball'><div class='redline'></div> <div class='wug1b'></div><div class='wug2b'></div><div class='dot3b'></div><div class='wug4b'></div> </div><div class = 'ball2'></div></div><button onclick = 'DoAnimation();'>Please click here for animation!</button>,0,testing.17,testing,Every green circle,wugs.,all_true_existential
3299,NA,,html-button-delay-response,26,160645,0.0-26.0,gfeqy0t2et,no training,,<div class='container2'><div class='ball'><div class='redline'></div> <div class='wug1b'></div><div class='wug2b'></div><div class='wug3b'></div><div class='wug4b'></div> </div><div class = 'ball2'></div></div><button onclick = 'DoAnimation();'>Please click here for animation!</button>,0,testing.13,testing,Every green circle,wugs.,all_true_universal
19746,1g,demo.1,survey-dropdown,27,180896,0.0-27.0,gfeqy0t2et,no training,,,,,,,,
19746,1ug,demo.2,survey-dropdown,27,180896,0.0-27.0,gfeqy0t2et,no training,,,,,,,,
19746,female,demo.3,survey-dropdown,27,180896,0.0-27.0,gfeqy0t2et,no training,,,,,,,,
19746,25-34,demo.4,survey-dropdown,27,180896,0.0-27.0,gfeqy0t2et,no training,,,,,,,,
6444,5e3b05fe586bd33197f9377b,ProlificID,survey-text,0,6445,0.0-0.0,nc1rxw2syk,no training,,,,,,,,
2663,NA,instructions,instructions,1,9109,0.0-1.0,nc1rxw2syk,no training,"[{""page_index"":0,""viewing_time"":2663}]",,,,,,,
11566,NA,,html-button-delay-response,2,20677,0.0-2.0,nc1rxw2syk,no training,,<div class='container'><div class='ball_test'><div class='redline'></div> <div class='wug3'></div></div></div></div><button onclick = 'DoAnimation();'>Please click here for animation!</button>,0,teaching.3,teaching,The green circle,,
5134,NA,,html-button-delay-response,3,26325,0.0-3.0,nc1rxw2syk,no training,,<div class='container'><div class='ball_test'><div class='redline'></div> <div class='wug2'></div></div></div></div><button onclick = 'DoAnimation();'>Please click here for animation!</button>,0,teaching.2,teaching,The green circle,,
2936,NA,,html-button-delay-response,4,29764,0.0-4.0,nc1rxw2syk,no training,,<div class='container'><div class='ball_test'><div class='redline'></div> <div class='wug4'></div></div></div></div><button onclick = 'DoAnimation();'>Please click here for animation!</button>,0,teaching.4,teaching,The green circle,,
2695,NA,,html-button-delay-response,5,32972,0.0-5.0,nc1rxw2syk,no training,,<div class='container'><div class='ball_test'><div class='redline'></div> <div class='wug1'></div></div></div></div><button onclick = 'DoAnimation();'>Please click here for animation!</button>,0,teaching.1,teaching,The green circle,,
185999,NA,break,html-button-response,6,219478,0.0-6.0,nc1rxw2syk,no training,,"<p style='text-align:center'>Now, let's see how <b>you</b> use <i>wug</i>!</p> <p style='text-align:center'> You will see two animations but only one of them is visible, the other hidden.  Your task is to decide whether the sentence you will see describes the visible animation or the hidden animation. You should choose the hidden scenario if you consider the visible one inappropriate given the sentence you will see. </p>",0,,,,,
8734,NA,,html-button-delay-response,7,228213,0.0-7.0,nc1rxw2syk,no training,,<div class='container2'><div class='ball'><div class='redline'></div> <div class='wug2'></div> </div><div class = 'ball2'></div></div><button onclick = 'DoAnimation();'>Please click here for animation!</button>,0,testing.2,testing,The green circle,wugs.,AB
232223,NA,,html-button-delay-response,8,460951,0.0-8.0,nc1rxw2syk,no training,,<div class='container2'><div class='ball'><div class='redline'></div> <div class='wug1'></div> </div><div class = 'ball2'></div></div><button onclick = 'DoAnimation();'>Please click here for animation!</button>,1,testing.1,testing,The green circle,does not wug.,AB
4864,NA,,html-button-delay-response,9,466327,0.0-9.0,nc1rxw2syk,no training,,<div class='container2'><div class='ball'><div class='redline'></div> <div class='wug3b'></div> </div><div class = 'ball2'></div></div><button onclick = 'DoAnimation();'>Please click here for animation!</button>,0,testing.3,testing,The green circle,does not wug.,notAB
3150,NA,,html-button-delay-response,10,469983,0.0-10.0,nc1rxw2syk,no training,,<div class='container2'><div class='ball'><div class='redline'></div> <div class='wug4b'></div> </div><div class = 'ball2'></div></div><button onclick = 'DoAnimation();'>Please click here for animation!</button>,1,testing.4,testing,The green circle,wugs.,notAB
4898,NA,,html-button-delay-response,11,475382,0.0-11.0,nc1rxw2syk,no training,,<div class='container2'><div class='ball'><div class='redline'></div> <div class='dot4a'></div> </div><div class = 'ball2'></div></div><button onclick = 'DoAnimation();'>Please click here for animation!</button>,0,testing.12,testing,The green circle,does not wug.,notAnotB
2787,NA,,html-button-delay-response,12,478670,0.0-12.0,nc1rxw2syk,no training,,<div class='container2'><div class='ball'><div class='redline'></div> <div class='dot3a'></div> </div><div class = 'ball2'></div></div><button onclick = 'DoAnimation();'>Please click here for animation!</button>,1,testing.10,testing,The green circle,does not wug.,notAnotB
30651,NA,,html-button-delay-response,13,509823,0.0-13.0,nc1rxw2syk,no training,,<div class='container2'><div class='ball'><div class='redline'></div> <div class='dot2a'></div> </div><div class = 'ball2'></div></div><button onclick = 'DoAnimation();'>Please click here for animation!</button>,1,testing.9,testing,The green circle,wugs.,notAnotB
2762,NA,,html-button-delay-response,14,513087,0.0-14.0,nc1rxw2syk,no training,,<div class='container2'><div class='ball'><div class='redline'></div> <div class='dot3'></div> </div><div class = 'ball2'></div></div><button onclick = 'DoAnimation();'>Please click here for animation!</button>,1,testing.6,testing,The green circle,does not wug.,AnotB
2548,NA,,html-button-delay-response,15,516135,0.0-15.0,nc1rxw2syk,no training,,<div class='container2'><div class='ball'><div class='redline'></div> <div class='dot1a'></div> </div><div class = 'ball2'></div></div><button onclick = 'DoAnimation();'>Please click here for animation!</button>,1,testing.11,testing,The green circle,wugs.,notAnotB
2523,NA,,html-button-delay-response,16,519159,0.0-16.0,nc1rxw2syk,no training,,<div class='container2'><div class='ball'><div class='redline'></div> <div class='dot4'></div> </div><div class = 'ball2'></div></div><button onclick = 'DoAnimation();'>Please click here for animation!</button>,1,testing.8,testing,The green circle,does not wug.,AnotB
2472,NA,,html-button-delay-response,17,522135,0.0-17.0,nc1rxw2syk,no training,,<div class='container2'><div class='ball'><div class='redline'></div> <div class='dot1'></div> </div><div class = 'ball2'></div></div><button onclick = 'DoAnimation();'>Please click here for animation!</button>,1,testing.7,testing,The green circle,wugs.,AnotB
4318,NA,,html-button-delay-response,18,526967,0.0-18.0,nc1rxw2syk,no training,,<div class='container2'><div class='ball'><div class='redline'></div> <div class='dot2'></div> </div><div class = 'ball2'></div></div><button onclick = 'DoAnimation();'>Please click here for animation!</button>,0,testing.5,testing,The green circle,wugs.,AnotB
3666,NA,,html-button-delay-response,19,531135,0.0-19.0,nc1rxw2syk,no training,,<div class='container2'><div class='ball'><div class='redline'></div> <div class='dot7'></div><div class='dot8'></div><div class='dot5'></div><div class='dot6'></div> </div><div class = 'ball2'></div></div><button onclick = 'DoAnimation();'>Please click here for animation!</button>,1,testing.20,testing,Every green circles,wugs.,all_true_no_projection
3044,NA,,html-button-delay-response,20,534687,0.0-20.0,nc1rxw2syk,no training,,<div class='container2'><div class='ball'><div class='redline'></div> <div class='wug1a'></div><div class='wug2b'></div><div class='wug3a'></div><div class='wug4b'></div> </div><div class = 'ball2'></div></div><button onclick = 'DoAnimation();'>Please click here for animation!</button>,0,testing.16,testing,None of the green circles,wugs.,none_false
2619,NA,,html-button-delay-response,21,537807,0.0-21.0,nc1rxw2syk,no training,,<div class='container2'><div class='ball'><div class='redline'></div> <div class='wug1a'></div><div class='wug2a'></div><div class='wug3a'></div><div class='wug4a'></div> </div><div class = 'ball2'></div></div><button onclick = 'DoAnimation();'>Please click here for animation!</button>,1,testing.15,testing,None of the green circles,wugs.,none_true_universal
2505,NA,,html-button-delay-response,22,540815,0.0-22.0,nc1rxw2syk,no training,,<div class='container2'><div class='ball'><div class='redline'></div> <div class='wug1a'></div><div class='dot2a'></div><div class='wug3a'></div><div class='wug4a'></div> </div><div class = 'ball2'></div></div><button onclick = 'DoAnimation();'>Please click here for animation!</button>,1,testing.18,testing,None of the green circles,wugs.,none_true_existential
3066,NA,,html-button-delay-response,23,544383,0.0-23.0,nc1rxw2syk,no training,,<div class='container2'><div class='ball'><div class='redline'></div> <div class='wug1b'></div><div class='wug2b'></div><div class='dot3b'></div><div class='wug4b'></div> </div><div class = 'ball2'></div></div><button onclick = 'DoAnimation();'>Please click here for animation!</button>,0,testing.17,testing,Every green circle,wugs.,all_true_existential
2539,NA,,html-button-delay-response,24,547431,0.0-24.0,nc1rxw2syk,no training,,<div class='container2'><div class='ball'><div class='redline'></div> <div class='wug1b'></div><div class='wug2b'></div><div class='wug3b'></div><div class='wug4b'></div> </div><div class = 'ball2'></div></div><button onclick = 'DoAnimation();'>Please click here for animation!</button>,0,testing.13,testing,Every green circle,wugs.,all_true_universal
2570,NA,,html-button-delay-response,25,550503,0.0-25.0,nc1rxw2syk,no training,,<div class='container2'><div class='ball'><div class='redline'></div> <div class='wug1b'></div><div class='wug2b'></div><div class='wug3a'></div><div class='wug4a'></div> </div><div class = 'ball2'></div></div><button onclick = 'DoAnimation();'>Please click here for animation!</button>,1,testing.14,testing,Every green circle,wugs.,all_false
2506,NA,,html-button-delay-response,26,553511,0.0-26.0,nc1rxw2syk,no training,,<div class='container2'><div class='ball'><div class='redline'></div> <div class='dot1a'></div><div class='dot2a'></div><div class='dot3b'></div><div class='dot4b'></div> </div><div class = 'ball2'></div></div><button onclick = 'DoAnimation();'>Please click here for animation!</button>,1,testing.19,testing,None of the green circles,wugs.,none_true_no_projection
16867,1g,demo.1,survey-dropdown,27,570888,0.0-27.0,nc1rxw2syk,no training,,,,,,,,
16867,none,demo.2,survey-dropdown,27,570888,0.0-27.0,nc1rxw2syk,no training,,,,,,,,
16867,female,demo.3,survey-dropdown,27,570888,0.0-27.0,nc1rxw2syk,no training,,,,,,,,
16867,12-24,demo.4,survey-dropdown,27,570888,0.0-27.0,nc1rxw2syk,no training,,,,,,,,
4144,600a9ef5c601ed22453bd30a,ProlificID,survey-text,0,4147,0.0-0.0,w96v7r7h3m,no training,,,,,,,,
5047,NA,instructions,instructions,1,9195,0.0-1.0,w96v7r7h3m,no training,"[{""page_index"":0,""viewing_time"":5045}]",,,,,,,
12783,NA,,html-button-delay-response,2,21980,0.0-2.0,w96v7r7h3m,no training,,<div class='container'><div class='ball_test'><div class='redline'></div> <div class='wug1'></div></div></div></div><button onclick = 'DoAnimation();'>Please click here for animation!</button>,0,teaching.1,teaching,The green circle,,
5685,NA,,html-button-delay-response,3,28168,0.0-3.0,w96v7r7h3m,no training,,<div class='container'><div class='ball_test'><div class='redline'></div> <div class='wug3'></div></div></div></div><button onclick = 'DoAnimation();'>Please click here for animation!</button>,0,teaching.3,teaching,The green circle,,
6103,NA,,html-button-delay-response,4,34772,0.0-4.0,w96v7r7h3m,no training,,<div class='container'><div class='ball_test'><div class='redline'></div> <div class='wug2'></div></div></div></div><button onclick = 'DoAnimation();'>Please click here for animation!</button>,0,teaching.2,teaching,The green circle,,
8057,NA,,html-button-delay-response,5,43332,0.0-5.0,w96v7r7h3m,no training,,<div class='container'><div class='ball_test'><div class='redline'></div> <div class='wug4'></div></div></div></div><button onclick = 'DoAnimation();'>Please click here for animation!</button>,0,teaching.4,teaching,The green circle,,
9918,NA,break,html-button-response,6,53751,0.0-6.0,w96v7r7h3m,no training,,"<p style='text-align:center'>Now, let's see how <b>you</b> use <i>wug</i>!</p> <p style='text-align:center'> You will see two animations but only one of them is visible, the other hidden.  Your task is to decide whether the sentence you will see describes the visible animation or the hidden animation. You should choose the hidden scenario if you consider the visible one inappropriate given the sentence you will see. </p>",0,,,,,
15089,NA,,html-button-delay-response,7,68842,0.0-7.0,w96v7r7h3m,no training,,<div class='container2'><div class='ball'><div class='redline'></div> <div class='wug4b'></div> </div><div class = 'ball2'></div></div><button onclick = 'DoAnimation();'>Please click here for animation!</button>,1,testing.4,testing,The green circle,wugs.,notAB
8255,NA,,html-button-delay-response,8,77599,0.0-8.0,w96v7r7h3m,no training,,<div class='container2'><div class='ball'><div class='redline'></div> <div class='wug3b'></div> </div><div class = 'ball2'></div></div><button onclick = 'DoAnimation();'>Please click here for animation!</button>,1,testing.3,testing,The green circle,does not wug.,notAB
4675,NA,,html-button-delay-response,9,82775,0.0-9.0,w96v7r7h3m,no training,,<div class='container2'><div class='ball'><div class='redline'></div> <div class='wug2'></div> </div><div class = 'ball2'></div></div><button onclick = 'DoAnimation();'>Please click here for animation!</button>,0,testing.2,testing,The green circle,wugs.,AB
5679,NA,,html-button-delay-response,10,88957,0.0-10.0,w96v7r7h3m,no training,,<div class='container2'><div class='ball'><div class='redline'></div> <div class='wug1'></div> </div><div class = 'ball2'></div></div><button onclick = 'DoAnimation();'>Please click here for animation!</button>,0,testing.1,testing,The green circle,does not wug.,AB
4203,NA,,html-button-delay-response,11,93662,0.0-11.0,w96v7r7h3m,no training,,<div class='container2'><div class='ball'><div class='redline'></div> <div class='dot2a'></div> </div><div class = 'ball2'></div></div><button onclick = 'DoAnimation();'>Please click here for animation!</button>,1,testing.9,testing,The green circle,wugs.,notAnotB
3715,NA,,html-button-delay-response,12,97879,0.0-12.0,w96v7r7h3m,no training,,<div class='container2'><div class='ball'><div class='redline'></div> <div class='dot1'></div> </div><div class = 'ball2'></div></div><button onclick = 'DoAnimation();'>Please click here for animation!</button>,1,testing.7,testing,The green circle,wugs.,AnotB
4065,NA,,html-button-delay-response,13,102446,0.0-13.0,w96v7r7h3m,no training,,<div class='container2'><div class='ball'><div class='redline'></div> <div class='dot2'></div> </div><div class = 'ball2'></div></div><button onclick = 'DoAnimation();'>Please click here for animation!</button>,1,testing.5,testing,The green circle,wugs.,AnotB
17890,NA,,html-button-delay-response,14,120838,0.0-14.0,w96v7r7h3m,no training,,<div class='container2'><div class='ball'><div class='redline'></div> <div class='dot3'></div> </div><div class = 'ball2'></div></div><button onclick = 'DoAnimation();'>Please click here for animation!</button>,0,testing.6,testing,The green circle,does not wug.,AnotB
5168,NA,,html-button-delay-response,15,126508,0.0-15.0,w96v7r7h3m,no training,,<div class='container2'><div class='ball'><div class='redline'></div> <div class='dot4a'></div> </div><div class = 'ball2'></div></div><button onclick = 'DoAnimation();'>Please click here for animation!</button>,0,testing.12,testing,The green circle,does not wug.,notAnotB
6133,NA,,html-button-delay-response,16,133142,0.0-16.0,w96v7r7h3m,no training,,<div class='container2'><div class='ball'><div class='redline'></div> <div class='dot4'></div> </div><div class = 'ball2'></div></div><button onclick = 'DoAnimation();'>Please click here for animation!</button>,0,testing.8,testing,The green circle,does not wug.,AnotB
4054,NA,,html-button-delay-response,17,137698,0.0-17.0,w96v7r7h3m,no training,,<div class='container2'><div class='ball'><div class='redline'></div> <div class='dot3a'></div> </div><div class = 'ball2'></div></div><button onclick = 'DoAnimation();'>Please click here for animation!</button>,0,testing.10,testing,The green circle,does not wug.,notAnotB
5913,NA,,html-button-delay-response,18,144113,0.0-18.0,w96v7r7h3m,no training,,<div class='container2'><div class='ball'><div class='redline'></div> <div class='dot1a'></div> </div><div class = 'ball2'></div></div><button onclick = 'DoAnimation();'>Please click here for animation!</button>,1,testing.11,testing,The green circle,wugs.,notAnotB
4738,NA,,html-button-delay-response,19,149352,0.0-19.0,w96v7r7h3m,no training,,<div class='container2'><div class='ball'><div class='redline'></div> <div class='wug1a'></div><div class='wug2a'></div><div class='wug3a'></div><div class='wug4a'></div> </div><div class = 'ball2'></div></div><button onclick = 'DoAnimation();'>Please click here for animation!</button>,1,testing.15,testing,None of the green circles,wugs.,none_true_universal
4695,NA,,html-button-delay-response,20,154550,0.0-20.0,w96v7r7h3m,no training,,<div class='container2'><div class='ball'><div class='redline'></div> <div class='wug1b'></div><div class='wug2b'></div><div class='dot3b'></div><div class='wug4b'></div> </div><div class = 'ball2'></div></div><button onclick = 'DoAnimation();'>Please click here for animation!</button>,0,testing.17,testing,Every green circle,wugs.,all_true_existential
3983,NA,,html-button-delay-response,21,159034,0.0-21.0,w96v7r7h3m,no training,,<div class='container2'><div class='ball'><div class='redline'></div> <div class='wug1a'></div><div class='dot2a'></div><div class='wug3a'></div><div class='wug4a'></div> </div><div class = 'ball2'></div></div><button onclick = 'DoAnimation();'>Please click here for animation!</button>,1,testing.18,testing,None of the green circles,wugs.,none_true_existential
6201,NA,,html-button-delay-response,22,165738,0.0-22.0,w96v7r7h3m,no training,,<div class='container2'><div class='ball'><div class='redline'></div> <div class='wug1b'></div><div class='wug2b'></div><div class='wug3a'></div><div class='wug4a'></div> </div><div class = 'ball2'></div></div><button onclick = 'DoAnimation();'>Please click here for animation!</button>,1,testing.14,testing,Every green circle,wugs.,all_false
10179,NA,,html-button-delay-response,23,176419,0.0-23.0,w96v7r7h3m,no training,,<div class='container2'><div class='ball'><div class='redline'></div> <div class='wug1a'></div><div class='wug2b'></div><div class='wug3a'></div><div class='wug4b'></div> </div><div class = 'ball2'></div></div><button onclick = 'DoAnimation();'>Please click here for animation!</button>,1,testing.16,testing,None of the green circles,wugs.,none_false
4422,NA,,html-button-delay-response,24,181343,0.0-24.0,w96v7r7h3m,no training,,<div class='container2'><div class='ball'><div class='redline'></div> <div class='dot1a'></div><div class='dot2a'></div><div class='dot3b'></div><div class='dot4b'></div> </div><div class = 'ball2'></div></div><button onclick = 'DoAnimation();'>Please click here for animation!</button>,1,testing.19,testing,None of the green circles,wugs.,none_true_no_projection
14020,NA,,html-button-delay-response,25,195865,0.0-25.0,w96v7r7h3m,no training,,<div class='container2'><div class='ball'><div class='redline'></div> <div class='wug1b'></div><div class='wug2b'></div><div class='wug3b'></div><div class='wug4b'></div> </div><div class = 'ball2'></div></div><button onclick = 'DoAnimation();'>Please click here for animation!</button>,0,testing.13,testing,Every green circle,wugs.,all_true_universal
6810,NA,,html-button-delay-response,26,203177,0.0-26.0,w96v7r7h3m,no training,,<div class='container2'><div class='ball'><div class='redline'></div> <div class='dot7'></div><div class='dot8'></div><div class='dot5'></div><div class='dot6'></div> </div><div class = 'ball2'></div></div><button onclick = 'DoAnimation();'>Please click here for animation!</button>,0,testing.20,testing,Every green circles,wugs.,all_true_no_projection
24574,1ug,demo.1,survey-dropdown,27,228257,0.0-27.0,w96v7r7h3m,no training,,,,,,,,
24574,none,demo.2,survey-dropdown,27,228257,0.0-27.0,w96v7r7h3m,no training,,,,,,,,
24574,female,demo.3,survey-dropdown,27,228257,0.0-27.0,w96v7r7h3m,no training,,,,,,,,
24574,25-34,demo.4,survey-dropdown,27,228257,0.0-27.0,w96v7r7h3m,no training,,,,,,,,
13510,5f0fb2ffd614290441198a24,ProlificID,survey-text,0,13512,0.0-0.0,29dcvc1wlw,no training,,,,,,,,
5777,NA,instructions,instructions,1,19290,0.0-1.0,29dcvc1wlw,no training,"[{""page_index"":0,""viewing_time"":5776}]",,,,,,,
