rt,responses,questionId,trial_type,trial_index,time_elapsed,internal_node_id,subjectId,group,view_history,stimulus,button_pressed,id,type,shape,phrase,condition
6815,5e6a7e744ecdc603867d7a54,ProlificID,survey-text,0,6816,0.0-0.0,aw80fltpy4,control,,,,,,,,
1968,NA,instructions,instructions,1,8785,0.0-1.0,aw80fltpy4,control,"[{""page_index"":0,""viewing_time"":1967}]",,,,,,,
15341,NA,,html-button-delay-response,2,24127,0.0-2.0,aw80fltpy4,control,,<div class='container'><div class='ball'><div class='redline'></div> <div class='dot1a'></div> </div></div></div><button onclick = 'DoAnimation();'>Please click here for animation!</button>,0,testing.15,testing,The green circle,does not move from red upward.,notAnotB
10450,NA,,html-button-delay-response,3,35081,0.0-3.0,aw80fltpy4,control,,<div class='container'><div class='ball'><div class='redline'></div> <div class='dot3'></div> </div></div></div><button onclick = 'DoAnimation();'>Please click here for animation!</button>,1,testing.7,testing,The green circle,moves from red upward.,notAB
5754,NA,,html-button-delay-response,4,41336,0.0-4.0,aw80fltpy4,control,,<div class='container'><div class='ball'><div class='redline'></div> <div class='wug1b'></div> </div></div></div><button onclick = 'DoAnimation();'>Please click here for animation!</button>,0,testing.9,testing,The green circle,moves from red upward.,AnotB
7476,NA,,html-button-delay-response,5,49315,0.0-5.0,aw80fltpy4,control,,<div class='container'><div class='ball'><div class='redline'></div> <div class='dot4'></div> </div></div></div><button onclick = 'DoAnimation();'>Please click here for animation!</button>,0,testing.8,testing,The green circle,does not move from red upward.,notAB
4936,NA,,html-button-delay-response,6,54752,0.0-6.0,aw80fltpy4,control,,<div class='container'><div class='ball'><div class='redline'></div> <div class='wug3'></div> </div></div></div><button onclick = 'DoAnimation();'>Please click here for animation!</button>,1,testing.3,testing,The green circle,moves from red upward.,AB
6145,NA,,html-button-delay-response,7,61398,0.0-7.0,aw80fltpy4,control,,<div class='container'><div class='ball'><div class='redline'></div> <div class='wug3b'></div> </div></div></div><button onclick = 'DoAnimation();'>Please click here for animation!</button>,1,testing.11,testing,The green circle,does not move from red upward.,AnotB
7763,NA,,html-button-delay-response,8,69665,0.0-8.0,aw80fltpy4,control,,<div class='container'><div class='ball'><div class='redline'></div> <div class='dot2a'></div> </div></div></div><button onclick = 'DoAnimation();'>Please click here for animation!</button>,0,testing.13,testing,The green circle,moves from red upward.,notAnotB
3853,NA,,html-button-delay-response,9,74021,0.0-9.0,aw80fltpy4,control,,<div class='container'><div class='ball'><div class='redline'></div> <div class='dot3a'></div> </div></div></div><button onclick = 'DoAnimation();'>Please click here for animation!</button>,0,testing.14,testing,The green circle,moves from red upward.,notAnotB
5798,NA,,html-button-delay-response,10,80322,0.0-10.0,aw80fltpy4,control,,<div class='container'><div class='ball'><div class='redline'></div> <div class='wug4'></div> </div></div></div><button onclick = 'DoAnimation();'>Please click here for animation!</button>,0,testing.4,testing,The green circle,does not move from red upward.,AB
6075,NA,,html-button-delay-response,11,86899,0.0-11.0,aw80fltpy4,control,,<div class='container'><div class='ball'><div class='redline'></div> <div class='wug2b'></div> </div></div></div><button onclick = 'DoAnimation();'>Please click here for animation!</button>,0,testing.10,testing,The green circle,moves from red upward.,AnotB
10830,NA,,html-button-delay-response,12,98230,0.0-12.0,aw80fltpy4,control,,<div class='container'><div class='ball'><div class='redline'></div> <div class='dot2'></div> </div></div></div><button onclick = 'DoAnimation();'>Please click here for animation!</button>,1,testing.6,testing,The green circle,does not move from red upward.,notAB
5135,NA,,html-button-delay-response,13,103868,0.0-13.0,aw80fltpy4,control,,<div class='container'><div class='ball'><div class='redline'></div> <div class='wug2'></div> </div></div></div><button onclick = 'DoAnimation();'>Please click here for animation!</button>,0,testing.2,testing,The green circle,does not move from red upward.,AB
5550,NA,,html-button-delay-response,14,109920,0.0-14.0,aw80fltpy4,control,,<div class='container'><div class='ball'><div class='redline'></div> <div class='wug1'></div> </div></div></div><button onclick = 'DoAnimation();'>Please click here for animation!</button>,1,testing.1,testing,The green circle,moves from red upward.,AB
7807,NA,,html-button-delay-response,15,118228,0.0-15.0,aw80fltpy4,control,,<div class='container'><div class='ball'><div class='redline'></div> <div class='dot4a'></div> </div></div></div><button onclick = 'DoAnimation();'>Please click here for animation!</button>,1,testing.16,testing,The green circle,does not move from red upward.,notAnotB
6314,NA,,html-button-delay-response,16,125045,0.0-16.0,aw80fltpy4,control,,<div class='container'><div class='ball'><div class='redline'></div> <div class='wug4b'></div> </div></div></div><button onclick = 'DoAnimation();'>Please click here for animation!</button>,1,testing.12,testing,The green circle,does not move from red upward.,AnotB
13514,NA,,html-button-delay-response,17,139062,0.0-17.0,aw80fltpy4,control,,<div class='container'><div class='ball'><div class='redline'></div> <div class='dot1'></div> </div></div></div><button onclick = 'DoAnimation();'>Please click here for animation!</button>,0,testing.5,testing,The green circle,moves from red upward.,notAB
7484,NA,,html-button-delay-response,18,147048,0.0-18.0,aw80fltpy4,control,,<div class='container'><div class='ball'><div class='redline'></div> <div class='wug1a'></div><div class='wug2a'></div><div class='wug3a'></div><div class='wug4a'></div> </div></div></div><button onclick = 'DoAnimation();'>Please click here for animation!</button>,0,testing.19,testing,Every green circle,moves from red upward.,all_true_no_projection
4027,NA,,html-button-delay-response,19,151578,0.0-19.0,aw80fltpy4,control,,<div class='container'><div class='ball'><div class='redline'></div> <div class='wug1b'></div><div class='wug2b'></div><div class='wug3a'></div><div class='wug4a'></div> </div></div></div><button onclick = 'DoAnimation();'>Please click here for animation!</button>,1,testing.18,testing,Every green circle,moves from red upward.,all_true_universal
10639,NA,,html-button-delay-response,20,162718,0.0-20.0,aw80fltpy4,control,,<div class='container'><div class='ball'><div class='redline'></div> <div class='dot1'></div><div class='dot2'></div><div class='dot3'></div><div class='wug4'></div> </div></div></div><button onclick = 'DoAnimation();'>Please click here for animation!</button>,0,testing.20,testing,None of the green circles,moves from red upward.,none_false
6796,NA,,html-button-delay-response,21,170020,0.0-21.0,aw80fltpy4,control,,<div class='container'><div class='ball'><div class='redline'></div> <div class='dot1a'></div><div class='dot2a'></div><div class='dot3b'></div><div class='dot4b'></div> </div></div></div><button onclick = 'DoAnimation();'>Please click here for animation!</button>,1,testing.23,testing,None of the green circles,moves from red upward.,none_true_no_projection
4020,NA,,html-button-delay-response,22,174543,0.0-22.0,aw80fltpy4,control,,<div class='container'><div class='ball'><div class='redline'></div> <div class='wug1b'></div><div class='wug2b'></div><div class='wug3b'></div><div class='wug4b'></div> </div></div></div><button onclick = 'DoAnimation();'>Please click here for animation!</button>,0,testing.17,testing,Every green circle,moves from red upward.,all_true_existential
9398,NA,,html-button-delay-response,23,184444,0.0-23.0,aw80fltpy4,control,,<div class='container'><div class='ball'><div class='redline'></div> <div class='dot7'></div><div class='dot8'></div><div class='dot5'></div><div class='dot6'></div> </div></div></div><button onclick = 'DoAnimation();'>Please click here for animation!</button>,0,testing.24,testing,None of the green circles,moves from red upward.,none_true_universal
7532,NA,,html-button-delay-response,24,192478,0.0-24.0,aw80fltpy4,control,,<div class='container'><div class='ball'><div class='redline'></div> <div class='wug1b'></div><div class='wug2b'></div><div class='dot3b'></div><div class='wug4b'></div> </div></div></div><button onclick = 'DoAnimation();'>Please click here for animation!</button>,0,testing.21,testing,Every green circle,moves from red upward.,all_false
7210,NA,,html-button-delay-response,25,200191,0.0-25.0,aw80fltpy4,control,,<div class='container'><div class='ball'><div class='redline'></div> <div class='dot1a'></div><div class='dot2a'></div><div class='dot3a'></div><div class='dot4a'></div> </div></div></div><button onclick = 'DoAnimation();'>Please click here for animation!</button>,1,testing.22,testing,None of the green circles,moves from red upward.,none_true_existential
14341,['wugging had to do with the direction of the movement'],self_report,survey-multi-select,26,215036,0.0-26.0,aw80fltpy4,control,,,,,,,,
16681,1ug,demo.1,survey-dropdown,27,231720,0.0-27.0,aw80fltpy4,control,,,,,,,,
16681,none,demo.2,survey-dropdown,27,231720,0.0-27.0,aw80fltpy4,control,,,,,,,,
16681,female,demo.3,survey-dropdown,27,231720,0.0-27.0,aw80fltpy4,control,,,,,,,,
16681,-20,demo.4,survey-dropdown,27,231720,0.0-27.0,aw80fltpy4,control,,,,,,,,
6143,5d6d15ce424136001af41fbc,ProlificID,survey-text,0,6146,0.0-0.0,uj27tmpgph,wug=direction,,,,,,,,
3986,NA,instructions,instructions,1,10134,0.0-1.0,uj27tmpgph,wug=direction,"[{""page_index"":0,""viewing_time"":3984}]",,,,,,,
11899,NA,,html-button-delay-response,2,22038,0.0-2.0,uj27tmpgph,wug=direction,,<div class='container'><div class='ball'><div class='redline'></div> <div class='wug4b'></div></div></div></div><button onclick = 'DoAnimation();'>Please click here for animation!</button>,0,teaching.8,teaching,The green circle,,
5739,NA,,html-button-delay-response,3,28285,0.0-3.0,uj27tmpgph,wug=direction,,<div class='container'><div class='ball'><div class='redline'></div> <div class='wug3b'></div></div></div></div><button onclick = 'DoAnimation();'>Please click here for animation!</button>,0,teaching.7,teaching,The green circle,,
4909,NA,,html-button-delay-response,4,33703,0.0-4.0,uj27tmpgph,wug=direction,,<div class='container'><div class='ball'><div class='redline'></div> <div class='wug2'></div></div></div></div><button onclick = 'DoAnimation();'>Please click here for animation!</button>,0,teaching.2,teaching,The green circle,,
3772,NA,,html-button-delay-response,5,37984,0.0-5.0,uj27tmpgph,wug=direction,,<div class='container'><div class='ball'><div class='redline'></div> <div class='wug2b'></div></div></div></div><button onclick = 'DoAnimation();'>Please click here for animation!</button>,0,teaching.6,teaching,The green circle,,
4514,NA,,html-button-delay-response,6,43006,0.0-6.0,uj27tmpgph,wug=direction,,<div class='container'><div class='ball'><div class='redline'></div> <div class='wug4'></div></div></div></div><button onclick = 'DoAnimation();'>Please click here for animation!</button>,0,teaching.4,teaching,The green circle,,
3775,NA,,html-button-delay-response,7,47287,0.0-7.0,uj27tmpgph,wug=direction,,<div class='container'><div class='ball'><div class='redline'></div> <div class='wug3'></div></div></div></div><button onclick = 'DoAnimation();'>Please click here for animation!</button>,0,teaching.3,teaching,The green circle,,
3102,NA,,html-button-delay-response,8,50899,0.0-8.0,uj27tmpgph,wug=direction,,<div class='container'><div class='ball'><div class='redline'></div> <div class='wug1'></div></div></div></div><button onclick = 'DoAnimation();'>Please click here for animation!</button>,0,teaching.1,teaching,The green circle,,
4909,NA,,html-button-delay-response,9,56317,0.0-9.0,uj27tmpgph,wug=direction,,<div class='container'><div class='ball'><div class='redline'></div> <div class='wug1b'></div></div></div></div><button onclick = 'DoAnimation();'>Please click here for animation!</button>,0,teaching.5,teaching,The green circle,,
3337,NA,break,html-button-response,10,60161,0.0-10.0,uj27tmpgph,wug=direction,,"<p style='text-align:center'>Now, let's see how <b>you</b> use <i>wug</i>! You will see animations and will be asked to make a decision.</p>",0,,,,,
5100,NA,,html-button-delay-response,11,65263,0.0-11.0,uj27tmpgph,wug=direction,,<div class='container'><div class='ball'><div class='redline'></div> <div class='wug4b'></div> </div></div></div><button onclick = 'DoAnimation();'>Please click here for animation!</button>,0,testing.4,testing,The green circle,wugs.,notAB
4237,NA,,html-button-delay-response,12,70012,0.0-12.0,uj27tmpgph,wug=direction,,<div class='container'><div class='ball'><div class='redline'></div> <div class='wug3b'></div> </div></div></div><button onclick = 'DoAnimation();'>Please click here for animation!</button>,1,testing.3,testing,The green circle,does not wug.,notAB
3565,NA,,html-button-delay-response,13,74089,0.0-13.0,uj27tmpgph,wug=direction,,<div class='container'><div class='ball'><div class='redline'></div> <div class='wug2'></div> </div></div></div><button onclick = 'DoAnimation();'>Please click here for animation!</button>,1,testing.2,testing,The green circle,wugs.,AB
4515,NA,,html-button-delay-response,14,79111,0.0-14.0,uj27tmpgph,wug=direction,,<div class='container'><div class='ball'><div class='redline'></div> <div class='wug1'></div> </div></div></div><button onclick = 'DoAnimation();'>Please click here for animation!</button>,0,testing.1,testing,The green circle,does not wug.,AB
6283,NA,,html-button-delay-response,15,85905,0.0-15.0,uj27tmpgph,wug=direction,,<div class='container'><div class='ball'><div class='redline'></div> <div class='dot1'></div> </div></div></div><button onclick = 'DoAnimation();'>Please click here for animation!</button>,0,testing.7,testing,The green circle,wugs.,AnotB
4605,NA,,html-button-delay-response,16,91018,0.0-16.0,uj27tmpgph,wug=direction,,<div class='container'><div class='ball'><div class='redline'></div> <div class='dot3'></div> </div></div></div><button onclick = 'DoAnimation();'>Please click here for animation!</button>,1,testing.6,testing,The green circle,does not wug.,AnotB
11896,NA,,html-button-delay-response,17,103423,0.0-17.0,uj27tmpgph,wug=direction,,<div class='container'><div class='ball'><div class='redline'></div> <div class='dot4a'></div> </div></div></div><button onclick = 'DoAnimation();'>Please click here for animation!</button>,1,testing.12,testing,The green circle,does not wug.,notAnotB
5578,NA,,html-button-delay-response,18,109509,0.0-18.0,uj27tmpgph,wug=direction,,<div class='container'><div class='ball'><div class='redline'></div> <div class='dot4'></div> </div></div></div><button onclick = 'DoAnimation();'>Please click here for animation!</button>,1,testing.8,testing,The green circle,does not wug.,AnotB
4238,NA,,html-button-delay-response,19,114256,0.0-19.0,uj27tmpgph,wug=direction,,<div class='container'><div class='ball'><div class='redline'></div> <div class='dot1a'></div> </div></div></div><button onclick = 'DoAnimation();'>Please click here for animation!</button>,0,testing.11,testing,The green circle,wugs.,notAnotB
4949,NA,,html-button-delay-response,20,119718,0.0-20.0,uj27tmpgph,wug=direction,,<div class='container'><div class='ball'><div class='redline'></div> <div class='dot3a'></div> </div></div></div><button onclick = 'DoAnimation();'>Please click here for animation!</button>,1,testing.10,testing,The green circle,does not wug.,notAnotB
4033,NA,,html-button-delay-response,21,124262,0.0-21.0,uj27tmpgph,wug=direction,,<div class='container'><div class='ball'><div class='redline'></div> <div class='dot2a'></div> </div></div></div><button onclick = 'DoAnimation();'>Please click here for animation!</button>,0,testing.9,testing,The green circle,wugs.,notAnotB
4478,NA,,html-button-delay-response,22,129252,0.0-22.0,uj27tmpgph,wug=direction,,<div class='container'><div class='ball'><div class='redline'></div> <div class='dot2'></div> </div></div></div><button onclick = 'DoAnimation();'>Please click here for animation!</button>,0,testing.5,testing,The green circle,wugs.,AnotB
8472,NA,,html-button-delay-response,23,138228,0.0-23.0,uj27tmpgph,wug=direction,,<div class='container'><div class='ball'><div class='redline'></div> <div class='dot1a'></div><div class='dot2a'></div><div class='dot3b'></div><div class='dot4b'></div> </div></div></div><button onclick = 'DoAnimation();'>Please click here for animation!</button>,1,testing.19,testing,None of the green circles,wugs.,none_true_no_projection
4159,NA,,html-button-delay-response,24,142894,0.0-24.0,uj27tmpgph,wug=direction,,<div class='container'><div class='ball'><div class='redline'></div> <div class='wug1b'></div><div class='wug2b'></div><div class='wug3b'></div><div class='wug4b'></div> </div></div></div><button onclick = 'DoAnimation();'>Please click here for animation!</button>,1,testing.13,testing,Every green circle,wugs.,all_true_universal
5538,NA,,html-button-delay-response,25,148939,0.0-25.0,uj27tmpgph,wug=direction,,<div class='container'><div class='ball'><div class='redline'></div> <div class='dot7'></div><div class='dot8'></div><div class='dot5'></div><div class='dot6'></div> </div></div></div><button onclick = 'DoAnimation();'>Please click here for animation!</button>,0,testing.20,testing,Every green circles,wugs.,all_true_no_projection
6288,NA,,html-button-delay-response,26,155734,0.0-26.0,uj27tmpgph,wug=direction,,<div class='container'><div class='ball'><div class='redline'></div> <div class='wug1b'></div><div class='wug2b'></div><div class='dot3b'></div><div class='wug4b'></div> </div></div></div><button onclick = 'DoAnimation();'>Please click here for animation!</button>,0,testing.17,testing,Every green circle,wugs.,all_true_existential
4439,NA,,html-button-delay-response,27,160683,0.0-27.0,uj27tmpgph,wug=direction,,<div class='container'><div class='ball'><div class='redline'></div> <div class='wug1b'></div><div class='wug2b'></div><div class='wug3a'></div><div class='wug4a'></div> </div></div></div><button onclick = 'DoAnimation();'>Please click here for animation!</button>,0,testing.14,testing,Every green circle,wugs.,all_false
6217,NA,,html-button-delay-response,28,167408,0.0-28.0,uj27tmpgph,wug=direction,,<div class='container'><div class='ball'><div class='redline'></div> <div class='wug1a'></div><div class='dot2a'></div><div class='wug3a'></div><div class='wug4a'></div> </div></div></div><button onclick = 'DoAnimation();'>Please click here for animation!</button>,1,testing.18,testing,None of the green circles,wugs.,none_true_existential
4593,NA,,html-button-delay-response,29,172510,0.0-29.0,uj27tmpgph,wug=direction,,<div class='container'><div class='ball'><div class='redline'></div> <div class='wug1a'></div><div class='wug2a'></div><div class='wug3a'></div><div class='wug4a'></div> </div></div></div><button onclick = 'DoAnimation();'>Please click here for animation!</button>,1,testing.15,testing,None of the green circles,wugs.,none_true_universal
4351,NA,,html-button-delay-response,30,177368,0.0-30.0,uj27tmpgph,wug=direction,,<div class='container'><div class='ball'><div class='redline'></div> <div class='wug1a'></div><div class='wug2b'></div><div class='wug3a'></div><div class='wug4b'></div> </div></div></div><button onclick = 'DoAnimation();'>Please click here for animation!</button>,0,testing.16,testing,None of the green circles,wugs.,none_false
10656,"['wugging had to do with the direction of the movement', 'wugging had to do with the red line', 'wugging had to do with the lower or upper half of the grey circle']",self_report,survey-multi-select,31,188550,0.0-31.0,uj27tmpgph,wug=direction,,,,,,,,
20458,1ug,demo.1,survey-dropdown,32,209016,0.0-32.0,uj27tmpgph,wug=direction,,,,,,,,
20458,none,demo.2,survey-dropdown,32,209016,0.0-32.0,uj27tmpgph,wug=direction,,,,,,,,
20458,female,demo.3,survey-dropdown,32,209016,0.0-32.0,uj27tmpgph,wug=direction,,,,,,,,
20458,12-24,demo.4,survey-dropdown,32,209016,0.0-32.0,uj27tmpgph,wug=direction,,,,,,,,
16180,5ebbc84205594f1b921a6a50,ProlificID,survey-text,0,16181,0.0-0.0,jqv0auotxk,wug=direction,,,,,,,,
5175,NA,instructions,instructions,1,21357,0.0-1.0,jqv0auotxk,wug=direction,"[{""page_index"":0,""viewing_time"":5174}]",,,,,,,
10566,NA,,html-button-delay-response,2,31924,0.0-2.0,jqv0auotxk,wug=direction,,<div class='container'><div class='ball'><div class='redline'></div> <div class='wug1b'></div></div></div></div><button onclick = 'DoAnimation();'>Please click here for animation!</button>,0,teaching.5,teaching,The green circle,,
7075,NA,,html-button-delay-response,3,39500,0.0-3.0,jqv0auotxk,wug=direction,,<div class='container'><div class='ball'><div class='redline'></div> <div class='wug4b'></div></div></div></div><button onclick = 'DoAnimation();'>Please click here for animation!</button>,0,teaching.8,teaching,The green circle,,
5049,NA,,html-button-delay-response,4,45051,0.0-4.0,jqv0auotxk,wug=direction,,<div class='container'><div class='ball'><div class='redline'></div> <div class='wug3b'></div></div></div></div><button onclick = 'DoAnimation();'>Please click here for animation!</button>,0,teaching.7,teaching,The green circle,,
5235,NA,,html-button-delay-response,5,50788,0.0-5.0,jqv0auotxk,wug=direction,,<div class='container'><div class='ball'><div class='redline'></div> <div class='wug3'></div></div></div></div><button onclick = 'DoAnimation();'>Please click here for animation!</button>,0,teaching.3,teaching,The green circle,,
2962,NA,,html-button-delay-response,6,54252,0.0-6.0,jqv0auotxk,wug=direction,,<div class='container'><div class='ball'><div class='redline'></div> <div class='wug2'></div></div></div></div><button onclick = 'DoAnimation();'>Please click here for animation!</button>,0,teaching.2,teaching,The green circle,,
2754,NA,,html-button-delay-response,7,57508,0.0-7.0,jqv0auotxk,wug=direction,,<div class='container'><div class='ball'><div class='redline'></div> <div class='wug2b'></div></div></div></div><button onclick = 'DoAnimation();'>Please click here for animation!</button>,0,teaching.6,teaching,The green circle,,
3034,NA,,html-button-delay-response,8,61045,0.0-8.0,jqv0auotxk,wug=direction,,<div class='container'><div class='ball'><div class='redline'></div> <div class='wug4'></div></div></div></div><button onclick = 'DoAnimation();'>Please click here for animation!</button>,0,teaching.4,teaching,The green circle,,
2993,NA,,html-button-delay-response,9,64540,0.0-9.0,jqv0auotxk,wug=direction,,<div class='container'><div class='ball'><div class='redline'></div> <div class='wug1'></div></div></div></div><button onclick = 'DoAnimation();'>Please click here for animation!</button>,0,teaching.1,teaching,The green circle,,
3811,NA,break,html-button-response,10,68852,0.0-10.0,jqv0auotxk,wug=direction,,"<p style='text-align:center'>Now, let's see how <b>you</b> use <i>wug</i>! You will see animations and will be asked to make a decision.</p>",0,,,,,
3959,NA,,html-button-delay-response,11,72812,0.0-11.0,jqv0auotxk,wug=direction,,<div class='container'><div class='ball'><div class='redline'></div> <div class='wug1'></div> </div></div></div><button onclick = 'DoAnimation();'>Please click here for animation!</button>,0,testing.1,testing,The green circle,does not wug.,AB
3097,NA,,html-button-delay-response,12,76412,0.0-12.0,jqv0auotxk,wug=direction,,<div class='container'><div class='ball'><div class='redline'></div> <div class='wug4b'></div> </div></div></div><button onclick = 'DoAnimation();'>Please click here for animation!</button>,0,testing.4,testing,The green circle,wugs.,notAB
2994,NA,,html-button-delay-response,13,79908,0.0-13.0,jqv0auotxk,wug=direction,,<div class='container'><div class='ball'><div class='redline'></div> <div class='wug2'></div> </div></div></div><button onclick = 'DoAnimation();'>Please click here for animation!</button>,1,testing.2,testing,The green circle,wugs.,AB
3337,NA,,html-button-delay-response,14,83748,0.0-14.0,jqv0auotxk,wug=direction,,<div class='container'><div class='ball'><div class='redline'></div> <div class='wug3b'></div> </div></div></div><button onclick = 'DoAnimation();'>Please click here for animation!</button>,1,testing.3,testing,The green circle,does not wug.,notAB
3587,NA,,html-button-delay-response,15,87836,0.0-15.0,jqv0auotxk,wug=direction,,<div class='container'><div class='ball'><div class='redline'></div> <div class='dot2a'></div> </div></div></div><button onclick = 'DoAnimation();'>Please click here for animation!</button>,0,testing.9,testing,The green circle,wugs.,notAnotB
3307,NA,,html-button-delay-response,16,91644,0.0-16.0,jqv0auotxk,wug=direction,,<div class='container'><div class='ball'><div class='redline'></div> <div class='dot4'></div> </div></div></div><button onclick = 'DoAnimation();'>Please click here for animation!</button>,0,testing.8,testing,The green circle,does not wug.,AnotB
4011,NA,,html-button-delay-response,17,96156,0.0-17.0,jqv0auotxk,wug=direction,,<div class='container'><div class='ball'><div class='redline'></div> <div class='dot3'></div> </div></div></div><button onclick = 'DoAnimation();'>Please click here for animation!</button>,0,testing.6,testing,The green circle,does not wug.,AnotB
6530,NA,,html-button-delay-response,18,103188,0.0-18.0,jqv0auotxk,wug=direction,,<div class='container'><div class='ball'><div class='redline'></div> <div class='dot2'></div> </div></div></div><button onclick = 'DoAnimation();'>Please click here for animation!</button>,1,testing.5,testing,The green circle,wugs.,AnotB
3098,NA,,html-button-delay-response,19,106788,0.0-19.0,jqv0auotxk,wug=direction,,<div class='container'><div class='ball'><div class='redline'></div> <div class='dot1a'></div> </div></div></div><button onclick = 'DoAnimation();'>Please click here for animation!</button>,0,testing.11,testing,The green circle,wugs.,notAnotB
7467,NA,,html-button-delay-response,20,114756,0.0-20.0,jqv0auotxk,wug=direction,,<div class='container'><div class='ball'><div class='redline'></div> <div class='dot1'></div> </div></div></div><button onclick = 'DoAnimation();'>Please click here for animation!</button>,1,testing.7,testing,The green circle,wugs.,AnotB
5346,NA,,html-button-delay-response,21,120603,0.0-21.0,jqv0auotxk,wug=direction,,<div class='container'><div class='ball'><div class='redline'></div> <div class='dot3a'></div> </div></div></div><button onclick = 'DoAnimation();'>Please click here for animation!</button>,1,testing.10,testing,The green circle,does not wug.,notAnotB
2993,NA,,html-button-delay-response,22,124099,0.0-22.0,jqv0auotxk,wug=direction,,<div class='container'><div class='ball'><div class='redline'></div> <div class='dot4a'></div> </div></div></div><button onclick = 'DoAnimation();'>Please click here for animation!</button>,1,testing.12,testing,The green circle,does not wug.,notAnotB
3810,NA,,html-button-delay-response,23,128411,0.0-23.0,jqv0auotxk,wug=direction,,<div class='container'><div class='ball'><div class='redline'></div> <div class='wug1b'></div><div class='wug2b'></div><div class='wug3a'></div><div class='wug4a'></div> </div></div></div><button onclick = 'DoAnimation();'>Please click here for animation!</button>,0,testing.14,testing,Every green circle,wugs.,all_false
4082,NA,,html-button-delay-response,24,132995,0.0-24.0,jqv0auotxk,wug=direction,,<div class='container'><div class='ball'><div class='redline'></div> <div class='wug1a'></div><div class='wug2b'></div><div class='wug3a'></div><div class='wug4b'></div> </div></div></div><button onclick = 'DoAnimation();'>Please click here for animation!</button>,0,testing.16,testing,None of the green circles,wugs.,none_false
2851,NA,,html-button-delay-response,25,136347,0.0-25.0,jqv0auotxk,wug=direction,,<div class='container'><div class='ball'><div class='redline'></div> <div class='wug1b'></div><div class='wug2b'></div><div class='dot3b'></div><div class='wug4b'></div> </div></div></div><button onclick = 'DoAnimation();'>Please click here for animation!</button>,1,testing.17,testing,Every green circle,wugs.,all_true_existential
3251,NA,,html-button-delay-response,26,140099,0.0-26.0,jqv0auotxk,wug=direction,,<div class='container'><div class='ball'><div class='redline'></div> <div class='wug1a'></div><div class='wug2a'></div><div class='wug3a'></div><div class='wug4a'></div> </div></div></div><button onclick = 'DoAnimation();'>Please click here for animation!</button>,1,testing.15,testing,None of the green circles,wugs.,none_true_universal
2794,NA,,html-button-delay-response,27,143395,0.0-27.0,jqv0auotxk,wug=direction,,<div class='container'><div class='ball'><div class='redline'></div> <div class='dot7'></div><div class='dot8'></div><div class='dot5'></div><div class='dot6'></div> </div></div></div><button onclick = 'DoAnimation();'>Please click here for animation!</button>,1,testing.20,testing,Every green circles,wugs.,all_true_no_projection
2675,NA,,html-button-delay-response,28,146572,0.0-28.0,jqv0auotxk,wug=direction,,<div class='container'><div class='ball'><div class='redline'></div> <div class='wug1b'></div><div class='wug2b'></div><div class='wug3b'></div><div class='wug4b'></div> </div></div></div><button onclick = 'DoAnimation();'>Please click here for animation!</button>,1,testing.13,testing,Every green circle,wugs.,all_true_universal
3113,NA,,html-button-delay-response,29,150188,0.0-29.0,jqv0auotxk,wug=direction,,<div class='container'><div class='ball'><div class='redline'></div> <div class='dot1a'></div><div class='dot2a'></div><div class='dot3b'></div><div class='dot4b'></div> </div></div></div><button onclick = 'DoAnimation();'>Please click here for animation!</button>,1,testing.19,testing,None of the green circles,wugs.,none_true_no_projection
2744,NA,,html-button-delay-response,30,153435,0.0-30.0,jqv0auotxk,wug=direction,,<div class='container'><div class='ball'><div class='redline'></div> <div class='wug1a'></div><div class='dot2a'></div><div class='wug3a'></div><div class='wug4a'></div> </div></div></div><button onclick = 'DoAnimation();'>Please click here for animation!</button>,1,testing.18,testing,None of the green circles,wugs.,none_true_existential
9168,['wugging had to do with the direction of the movement'],self_report,survey-multi-select,31,163108,0.0-31.0,jqv0auotxk,wug=direction,,,,,,,,
23062,1g,demo.1,survey-dropdown,32,186172,0.0-32.0,jqv0auotxk,wug=direction,,,,,,,,
23062,1ug,demo.2,survey-dropdown,32,186172,0.0-32.0,jqv0auotxk,wug=direction,,,,,,,,
23062,male,demo.3,survey-dropdown,32,186172,0.0-32.0,jqv0auotxk,wug=direction,,,,,,,,
23062,12-24,demo.4,survey-dropdown,32,186172,0.0-32.0,jqv0auotxk,wug=direction,,,,,,,,
3604,601809dedf0288aec1c94413,ProlificID,survey-text,0,3610,0.0-0.0,vpu3mt3mm9,control,,,,,,,,
6617,NA,instructions,instructions,1,10232,0.0-1.0,vpu3mt3mm9,control,"[{""page_index"":0,""viewing_time"":6613}]",,,,,,,
9280,NA,,html-button-delay-response,2,19521,0.0-2.0,vpu3mt3mm9,control,,<div class='container'><div class='ball'><div class='redline'></div> <div class='wug1b'></div> </div></div></div><button onclick = 'DoAnimation();'>Please click here for animation!</button>,0,testing.9,testing,The green circle,moves from red upward.,AnotB
9805,NA,,html-button-delay-response,3,29837,0.0-3.0,vpu3mt3mm9,control,,<div class='container'><div class='ball'><div class='redline'></div> <div class='dot1a'></div> </div></div></div><button onclick = 'DoAnimation();'>Please click here for animation!</button>,1,testing.15,testing,The green circle,does not move from red upward.,notAnotB
5944,NA,,html-button-delay-response,4,36289,0.0-4.0,vpu3mt3mm9,control,,<div class='container'><div class='ball'><div class='redline'></div> <div class='dot3a'></div> </div></div></div><button onclick = 'DoAnimation();'>Please click here for animation!</button>,0,testing.14,testing,The green circle,moves from red upward.,notAnotB
3064,NA,,html-button-delay-response,5,39861,0.0-5.0,vpu3mt3mm9,control,,<div class='container'><div class='ball'><div class='redline'></div> <div class='dot3'></div> </div></div></div><button onclick = 'DoAnimation();'>Please click here for animation!</button>,1,testing.7,testing,The green circle,moves from red upward.,notAB
5771,NA,,html-button-delay-response,6,46140,0.0-6.0,vpu3mt3mm9,control,,<div class='container'><div class='ball'><div class='redline'></div> <div class='wug4b'></div> </div></div></div><button onclick = 'DoAnimation();'>Please click here for animation!</button>,1,testing.12,testing,The green circle,does not move from red upward.,AnotB
7020,NA,,html-button-delay-response,7,53670,0.0-7.0,vpu3mt3mm9,control,,<div class='container'><div class='ball'><div class='redline'></div> <div class='wug3b'></div> </div></div></div><button onclick = 'DoAnimation();'>Please click here for animation!</button>,1,testing.11,testing,The green circle,does not move from red upward.,AnotB
3904,NA,,html-button-delay-response,8,58082,0.0-8.0,vpu3mt3mm9,control,,<div class='container'><div class='ball'><div class='redline'></div> <div class='wug2'></div> </div></div></div><button onclick = 'DoAnimation();'>Please click here for animation!</button>,0,testing.2,testing,The green circle,does not move from red upward.,AB
8942,NA,,html-button-delay-response,9,67532,0.0-9.0,vpu3mt3mm9,control,,<div class='container'><div class='ball'><div class='redline'></div> <div class='wug4'></div> </div></div></div><button onclick = 'DoAnimation();'>Please click here for animation!</button>,0,testing.4,testing,The green circle,does not move from red upward.,AB
7789,NA,,html-button-delay-response,10,75826,0.0-10.0,vpu3mt3mm9,control,,<div class='container'><div class='ball'><div class='redline'></div> <div class='dot2'></div> </div></div></div><button onclick = 'DoAnimation();'>Please click here for animation!</button>,0,testing.6,testing,The green circle,does not move from red upward.,notAB
3033,NA,,html-button-delay-response,11,79367,0.0-11.0,vpu3mt3mm9,control,,<div class='container'><div class='ball'><div class='redline'></div> <div class='wug1'></div> </div></div></div><button onclick = 'DoAnimation();'>Please click here for animation!</button>,1,testing.1,testing,The green circle,moves from red upward.,AB
3049,NA,,html-button-delay-response,12,82925,0.0-12.0,vpu3mt3mm9,control,,<div class='container'><div class='ball'><div class='redline'></div> <div class='dot2a'></div> </div></div></div><button onclick = 'DoAnimation();'>Please click here for animation!</button>,0,testing.13,testing,The green circle,moves from red upward.,notAnotB
3501,NA,,html-button-delay-response,13,86932,0.0-13.0,vpu3mt3mm9,control,,<div class='container'><div class='ball'><div class='redline'></div> <div class='wug2b'></div> </div></div></div><button onclick = 'DoAnimation();'>Please click here for animation!</button>,0,testing.10,testing,The green circle,moves from red upward.,AnotB
3165,NA,,html-button-delay-response,14,90605,0.0-14.0,vpu3mt3mm9,control,,<div class='container'><div class='ball'><div class='redline'></div> <div class='wug3'></div> </div></div></div><button onclick = 'DoAnimation();'>Please click here for animation!</button>,1,testing.3,testing,The green circle,moves from red upward.,AB
7393,NA,,html-button-delay-response,15,98506,0.0-15.0,vpu3mt3mm9,control,,<div class='container'><div class='ball'><div class='redline'></div> <div class='dot4a'></div> </div></div></div><button onclick = 'DoAnimation();'>Please click here for animation!</button>,1,testing.16,testing,The green circle,does not move from red upward.,notAnotB
3427,NA,,html-button-delay-response,16,102441,0.0-16.0,vpu3mt3mm9,control,,<div class='container'><div class='ball'><div class='redline'></div> <div class='dot4'></div> </div></div></div><button onclick = 'DoAnimation();'>Please click here for animation!</button>,0,testing.8,testing,The green circle,does not move from red upward.,notAB
43181,NA,,html-button-delay-response,17,146130,0.0-17.0,vpu3mt3mm9,control,,<div class='container'><div class='ball'><div class='redline'></div> <div class='dot1'></div> </div></div></div><button onclick = 'DoAnimation();'>Please click here for animation!</button>,0,testing.5,testing,The green circle,moves from red upward.,notAB
10214,NA,,html-button-delay-response,18,156853,0.0-18.0,vpu3mt3mm9,control,,<div class='container'><div class='ball'><div class='redline'></div> <div class='dot1a'></div><div class='dot2a'></div><div class='dot3b'></div><div class='dot4b'></div> </div></div></div><button onclick = 'DoAnimation();'>Please click here for animation!</button>,0,testing.23,testing,None of the green circles,moves from red upward.,none_true_no_projection
5574,NA,,html-button-delay-response,19,162934,0.0-19.0,vpu3mt3mm9,control,,<div class='container'><div class='ball'><div class='redline'></div> <div class='dot1a'></div><div class='dot2a'></div><div class='dot3a'></div><div class='dot4a'></div> </div></div></div><button onclick = 'DoAnimation();'>Please click here for animation!</button>,0,testing.22,testing,None of the green circles,moves from red upward.,none_true_existential
3055,NA,,html-button-delay-response,20,166495,0.0-20.0,vpu3mt3mm9,control,,<div class='container'><div class='ball'><div class='redline'></div> <div class='wug1b'></div><div class='wug2b'></div><div class='dot3b'></div><div class='wug4b'></div> </div></div></div><button onclick = 'DoAnimation();'>Please click here for animation!</button>,1,testing.21,testing,Every green circle,moves from red upward.,all_false
5693,NA,,html-button-delay-response,21,172693,0.0-21.0,vpu3mt3mm9,control,,<div class='container'><div class='ball'><div class='redline'></div> <div class='wug1a'></div><div class='wug2a'></div><div class='wug3a'></div><div class='wug4a'></div> </div></div></div><button onclick = 'DoAnimation();'>Please click here for animation!</button>,0,testing.19,testing,Every green circle,moves from red upward.,all_true_no_projection
2933,NA,,html-button-delay-response,22,176131,0.0-22.0,vpu3mt3mm9,control,,<div class='container'><div class='ball'><div class='redline'></div> <div class='wug1b'></div><div class='wug2b'></div><div class='wug3a'></div><div class='wug4a'></div> </div></div></div><button onclick = 'DoAnimation();'>Please click here for animation!</button>,1,testing.18,testing,Every green circle,moves from red upward.,all_true_universal
2993,NA,,html-button-delay-response,23,179631,0.0-23.0,vpu3mt3mm9,control,,<div class='container'><div class='ball'><div class='redline'></div> <div class='dot1'></div><div class='dot2'></div><div class='dot3'></div><div class='wug4'></div> </div></div></div><button onclick = 'DoAnimation();'>Please click here for animation!</button>,0,testing.20,testing,None of the green circles,moves from red upward.,none_false
9246,NA,,html-button-delay-response,24,189383,0.0-24.0,vpu3mt3mm9,control,,<div class='container'><div class='ball'><div class='redline'></div> <div class='dot7'></div><div class='dot8'></div><div class='dot5'></div><div class='dot6'></div> </div></div></div><button onclick = 'DoAnimation();'>Please click here for animation!</button>,0,testing.24,testing,None of the green circles,moves from red upward.,none_true_universal
3132,NA,,html-button-delay-response,25,193020,0.0-25.0,vpu3mt3mm9,control,,<div class='container'><div class='ball'><div class='redline'></div> <div class='wug1b'></div><div class='wug2b'></div><div class='wug3b'></div><div class='wug4b'></div> </div></div></div><button onclick = 'DoAnimation();'>Please click here for animation!</button>,0,testing.17,testing,Every green circle,moves from red upward.,all_true_existential
19545,['wugging had to do with the lower or upper half of the grey circle'],self_report,survey-multi-select,26,213091,0.0-26.0,vpu3mt3mm9,control,,,,,,,,
26221,1g,demo.1,survey-dropdown,27,239332,0.0-27.0,vpu3mt3mm9,control,,,,,,,,
26221,1g,demo.2,survey-dropdown,27,239332,0.0-27.0,vpu3mt3mm9,control,,,,,,,,
26221,male,demo.3,survey-dropdown,27,239332,0.0-27.0,vpu3mt3mm9,control,,,,,,,,
26221,12-24,demo.4,survey-dropdown,27,239332,0.0-27.0,vpu3mt3mm9,control,,,,,,,,
10285,5e23012e5f39765bc6ffe0b1,ProlificID,survey-text,0,10286,0.0-0.0,anbh7p2x2k,wug=direction,,,,,,,,
2063,NA,instructions,instructions,1,12350,0.0-1.0,anbh7p2x2k,wug=direction,"[{""page_index"":0,""viewing_time"":2063}]",,,,,,,
54208,NA,,html-button-delay-response,2,66560,0.0-2.0,anbh7p2x2k,wug=direction,,<div class='container'><div class='ball'><div class='redline'></div> <div class='wug3'></div></div></div></div><button onclick = 'DoAnimation();'>Please click here for animation!</button>,0,teaching.3,teaching,The green circle,,
5700,NA,,html-button-delay-response,3,72761,0.0-3.0,anbh7p2x2k,wug=direction,,<div class='container'><div class='ball'><div class='redline'></div> <div class='wug1b'></div></div></div></div><button onclick = 'DoAnimation();'>Please click here for animation!</button>,0,teaching.5,teaching,The green circle,,
31338,NA,,html-button-delay-response,4,104602,0.0-4.0,anbh7p2x2k,wug=direction,,<div class='container'><div class='ball'><div class='redline'></div> <div class='wug2'></div></div></div></div><button onclick = 'DoAnimation();'>Please click here for animation!</button>,0,teaching.2,teaching,The green circle,,
6853,NA,,html-button-delay-response,5,111957,0.0-5.0,anbh7p2x2k,wug=direction,,<div class='container'><div class='ball'><div class='redline'></div> <div class='wug4'></div></div></div></div><button onclick = 'DoAnimation();'>Please click here for animation!</button>,0,teaching.4,teaching,The green circle,,
10590,NA,,html-button-delay-response,6,123049,0.0-6.0,anbh7p2x2k,wug=direction,,<div class='container'><div class='ball'><div class='redline'></div> <div class='wug4b'></div></div></div></div><button onclick = 'DoAnimation();'>Please click here for animation!</button>,0,teaching.8,teaching,The green circle,,
6977,NA,,html-button-delay-response,7,130526,0.0-7.0,anbh7p2x2k,wug=direction,,<div class='container'><div class='ball'><div class='redline'></div> <div class='wug2b'></div></div></div></div><button onclick = 'DoAnimation();'>Please click here for animation!</button>,0,teaching.6,teaching,The green circle,,
6206,NA,,html-button-delay-response,8,137234,0.0-8.0,anbh7p2x2k,wug=direction,,<div class='container'><div class='ball'><div class='redline'></div> <div class='wug1'></div></div></div></div><button onclick = 'DoAnimation();'>Please click here for animation!</button>,0,teaching.1,teaching,The green circle,,
6849,NA,,html-button-delay-response,9,144585,0.0-9.0,anbh7p2x2k,wug=direction,,<div class='container'><div class='ball'><div class='redline'></div> <div class='wug3b'></div></div></div></div><button onclick = 'DoAnimation();'>Please click here for animation!</button>,0,teaching.7,teaching,The green circle,,
4917,NA,break,html-button-response,10,150005,0.0-10.0,anbh7p2x2k,wug=direction,,"<p style='text-align:center'>Now, let's see how <b>you</b> use <i>wug</i>! You will see animations and will be asked to make a decision.</p>",0,,,,,
8457,NA,,html-button-delay-response,11,158462,0.0-11.0,anbh7p2x2k,wug=direction,,<div class='container'><div class='ball'><div class='redline'></div> <div class='wug3b'></div> </div></div></div><button onclick = 'DoAnimation();'>Please click here for animation!</button>,0,testing.3,testing,The green circle,does not wug.,notAB
10773,NA,,html-button-delay-response,12,169737,0.0-12.0,anbh7p2x2k,wug=direction,,<div class='container'><div class='ball'><div class='redline'></div> <div class='wug2'></div> </div></div></div><button onclick = 'DoAnimation();'>Please click here for animation!</button>,0,testing.2,testing,The green circle,wugs.,AB
5381,NA,,html-button-delay-response,13,175621,0.0-13.0,anbh7p2x2k,wug=direction,,<div class='container'><div class='ball'><div class='redline'></div> <div class='wug4b'></div> </div></div></div><button onclick = 'DoAnimation();'>Please click here for animation!</button>,0,testing.4,testing,The green circle,wugs.,notAB
3761,NA,,html-button-delay-response,14,179882,0.0-14.0,anbh7p2x2k,wug=direction,,<div class='container'><div class='ball'><div class='redline'></div> <div class='wug1'></div> </div></div></div><button onclick = 'DoAnimation();'>Please click here for animation!</button>,0,testing.1,testing,The green circle,does not wug.,AB
3304,NA,,html-button-delay-response,15,183698,0.0-15.0,anbh7p2x2k,wug=direction,,<div class='container'><div class='ball'><div class='redline'></div> <div class='dot1a'></div> </div></div></div><button onclick = 'DoAnimation();'>Please click here for animation!</button>,0,testing.11,testing,The green circle,wugs.,notAnotB
2615,NA,,html-button-delay-response,16,186815,0.0-16.0,anbh7p2x2k,wug=direction,,<div class='container'><div class='ball'><div class='redline'></div> <div class='dot3'></div> </div></div></div><button onclick = 'DoAnimation();'>Please click here for animation!</button>,0,testing.6,testing,The green circle,does not wug.,AnotB
2624,NA,,html-button-delay-response,17,189942,0.0-17.0,anbh7p2x2k,wug=direction,,<div class='container'><div class='ball'><div class='redline'></div> <div class='dot3a'></div> </div></div></div><button onclick = 'DoAnimation();'>Please click here for animation!</button>,0,testing.10,testing,The green circle,does not wug.,notAnotB
2623,NA,,html-button-delay-response,18,193066,0.0-18.0,anbh7p2x2k,wug=direction,,<div class='container'><div class='ball'><div class='redline'></div> <div class='dot1'></div> </div></div></div><button onclick = 'DoAnimation();'>Please click here for animation!</button>,1,testing.7,testing,The green circle,wugs.,AnotB
2470,NA,,html-button-delay-response,19,196038,0.0-19.0,anbh7p2x2k,wug=direction,,<div class='container'><div class='ball'><div class='redline'></div> <div class='dot2a'></div> </div></div></div><button onclick = 'DoAnimation();'>Please click here for animation!</button>,0,testing.9,testing,The green circle,wugs.,notAnotB
4232,NA,,html-button-delay-response,20,200771,0.0-20.0,anbh7p2x2k,wug=direction,,<div class='container'><div class='ball'><div class='redline'></div> <div class='dot4a'></div> </div></div></div><button onclick = 'DoAnimation();'>Please click here for animation!</button>,1,testing.12,testing,The green circle,does not wug.,notAnotB
2422,NA,,html-button-delay-response,21,203695,0.0-21.0,anbh7p2x2k,wug=direction,,<div class='container'><div class='ball'><div class='redline'></div> <div class='dot2'></div> </div></div></div><button onclick = 'DoAnimation();'>Please click here for animation!</button>,1,testing.5,testing,The green circle,wugs.,AnotB
2374,NA,,html-button-delay-response,22,206572,0.0-22.0,anbh7p2x2k,wug=direction,,<div class='container'><div class='ball'><div class='redline'></div> <div class='dot4'></div> </div></div></div><button onclick = 'DoAnimation();'>Please click here for animation!</button>,0,testing.8,testing,The green circle,does not wug.,AnotB
3622,NA,,html-button-delay-response,23,210706,0.0-23.0,anbh7p2x2k,wug=direction,,<div class='container'><div class='ball'><div class='redline'></div> <div class='dot7'></div><div class='dot8'></div><div class='dot5'></div><div class='dot6'></div> </div></div></div><button onclick = 'DoAnimation();'>Please click here for animation!</button>,1,testing.20,testing,Every green circles,wugs.,all_true_no_projection
2427,NA,,html-button-delay-response,24,213634,0.0-24.0,anbh7p2x2k,wug=direction,,<div class='container'><div class='ball'><div class='redline'></div> <div class='wug1b'></div><div class='wug2b'></div><div class='wug3b'></div><div class='wug4b'></div> </div></div></div><button onclick = 'DoAnimation();'>Please click here for animation!</button>,1,testing.13,testing,Every green circle,wugs.,all_true_universal
2281,NA,,html-button-delay-response,25,216417,0.0-25.0,anbh7p2x2k,wug=direction,,<div class='container'><div class='ball'><div class='redline'></div> <div class='wug1b'></div><div class='wug2b'></div><div class='dot3b'></div><div class='wug4b'></div> </div></div></div><button onclick = 'DoAnimation();'>Please click here for animation!</button>,1,testing.17,testing,Every green circle,wugs.,all_true_existential
4051,NA,,html-button-delay-response,26,220973,0.0-26.0,anbh7p2x2k,wug=direction,,<div class='container'><div class='ball'><div class='redline'></div> <div class='wug1b'></div><div class='wug2b'></div><div class='wug3a'></div><div class='wug4a'></div> </div></div></div><button onclick = 'DoAnimation();'>Please click here for animation!</button>,0,testing.14,testing,Every green circle,wugs.,all_false
8535,NA,,html-button-delay-response,27,230024,0.0-27.0,anbh7p2x2k,wug=direction,,<div class='container'><div class='ball'><div class='redline'></div> <div class='wug1a'></div><div class='wug2b'></div><div class='wug3a'></div><div class='wug4b'></div> </div></div></div><button onclick = 'DoAnimation();'>Please click here for animation!</button>,1,testing.16,testing,None of the green circles,wugs.,none_false
3814,NA,,html-button-delay-response,28,234343,0.0-28.0,anbh7p2x2k,wug=direction,,<div class='container'><div class='ball'><div class='redline'></div> <div class='dot1a'></div><div class='dot2a'></div><div class='dot3b'></div><div class='dot4b'></div> </div></div></div><button onclick = 'DoAnimation();'>Please click here for animation!</button>,1,testing.19,testing,None of the green circles,wugs.,none_true_no_projection
3521,NA,,html-button-delay-response,29,238366,0.0-29.0,anbh7p2x2k,wug=direction,,<div class='container'><div class='ball'><div class='redline'></div> <div class='wug1a'></div><div class='dot2a'></div><div class='wug3a'></div><div class='wug4a'></div> </div></div></div><button onclick = 'DoAnimation();'>Please click here for animation!</button>,0,testing.18,testing,None of the green circles,wugs.,none_true_existential
3084,NA,,html-button-delay-response,30,241950,0.0-30.0,anbh7p2x2k,wug=direction,,<div class='container'><div class='ball'><div class='redline'></div> <div class='wug1a'></div><div class='wug2a'></div><div class='wug3a'></div><div class='wug4a'></div> </div></div></div><button onclick = 'DoAnimation();'>Please click here for animation!</button>,0,testing.15,testing,None of the green circles,wugs.,none_true_universal
12197,['wugging had to do with the direction of the movement'],self_report,survey-multi-select,31,254651,0.0-31.0,anbh7p2x2k,wug=direction,,,,,,,,
12763,2+ug,demo.1,survey-dropdown,32,267415,0.0-32.0,anbh7p2x2k,wug=direction,,,,,,,,
12763,1g,demo.2,survey-dropdown,32,267415,0.0-32.0,anbh7p2x2k,wug=direction,,,,,,,,
12763,male,demo.3,survey-dropdown,32,267415,0.0-32.0,anbh7p2x2k,wug=direction,,,,,,,,
12763,12-24,demo.4,survey-dropdown,32,267415,0.0-32.0,anbh7p2x2k,wug=direction,,,,,,,,
6065,5c3b61181ede2b000115fa91,ProlificID,survey-text,0,6076,0.0-0.0,0bfgjr1o22,control,,,,,,,,
9362,NA,instructions,instructions,1,15443,0.0-1.0,0bfgjr1o22,control,"[{""page_index"":0,""viewing_time"":9355}]",,,,,,,
10679,NA,,html-button-delay-response,2,26146,0.0-2.0,0bfgjr1o22,control,,<div class='container'><div class='ball'><div class='redline'></div> <div class='wug1'></div> </div></div></div><button onclick = 'DoAnimation();'>Please click here for animation!</button>,1,testing.1,testing,The green circle,moves from red upward.,AB
9219,NA,,html-button-delay-response,3,35875,0.0-3.0,0bfgjr1o22,control,,<div class='container'><div class='ball'><div class='redline'></div> <div class='dot4a'></div> </div></div></div><button onclick = 'DoAnimation();'>Please click here for animation!</button>,1,testing.16,testing,The green circle,does not move from red upward.,notAnotB
6896,NA,,html-button-delay-response,4,43282,0.0-4.0,0bfgjr1o22,control,,<div class='container'><div class='ball'><div class='redline'></div> <div class='wug3'></div> </div></div></div><button onclick = 'DoAnimation();'>Please click here for animation!</button>,1,testing.3,testing,The green circle,moves from red upward.,AB
6439,NA,,html-button-delay-response,5,50229,0.0-5.0,0bfgjr1o22,control,,<div class='container'><div class='ball'><div class='redline'></div> <div class='dot3'></div> </div></div></div><button onclick = 'DoAnimation();'>Please click here for animation!</button>,0,testing.7,testing,The green circle,moves from red upward.,notAB
6104,NA,,html-button-delay-response,6,56840,0.0-6.0,0bfgjr1o22,control,,<div class='container'><div class='ball'><div class='redline'></div> <div class='wug4'></div> </div></div></div><button onclick = 'DoAnimation();'>Please click here for animation!</button>,0,testing.4,testing,The green circle,does not move from red upward.,AB
4475,NA,,html-button-delay-response,7,61826,0.0-7.0,0bfgjr1o22,control,,<div class='container'><div class='ball'><div class='redline'></div> <div class='wug1b'></div> </div></div></div><button onclick = 'DoAnimation();'>Please click here for animation!</button>,0,testing.9,testing,The green circle,moves from red upward.,AnotB
7110,NA,,html-button-delay-response,8,69442,0.0-8.0,0bfgjr1o22,control,,<div class='container'><div class='ball'><div class='redline'></div> <div class='wug3b'></div> </div></div></div><button onclick = 'DoAnimation();'>Please click here for animation!</button>,1,testing.11,testing,The green circle,does not move from red upward.,AnotB
6346,NA,,html-button-delay-response,9,76297,0.0-9.0,0bfgjr1o22,control,,<div class='container'><div class='ball'><div class='redline'></div> <div class='dot1a'></div> </div></div></div><button onclick = 'DoAnimation();'>Please click here for animation!</button>,1,testing.15,testing,The green circle,does not move from red upward.,notAnotB
4397,NA,,html-button-delay-response,10,81199,0.0-10.0,0bfgjr1o22,control,,<div class='container'><div class='ball'><div class='redline'></div> <div class='wug2b'></div> </div></div></div><button onclick = 'DoAnimation();'>Please click here for animation!</button>,0,testing.10,testing,The green circle,moves from red upward.,AnotB
7172,NA,,html-button-delay-response,11,88878,0.0-11.0,0bfgjr1o22,control,,<div class='container'><div class='ball'><div class='redline'></div> <div class='wug4b'></div> </div></div></div><button onclick = 'DoAnimation();'>Please click here for animation!</button>,1,testing.12,testing,The green circle,does not move from red upward.,AnotB
5612,NA,,html-button-delay-response,12,94998,0.0-12.0,0bfgjr1o22,control,,<div class='container'><div class='ball'><div class='redline'></div> <div class='wug2'></div> </div></div></div><button onclick = 'DoAnimation();'>Please click here for animation!</button>,0,testing.2,testing,The green circle,does not move from red upward.,AB
6755,NA,,html-button-delay-response,13,102258,0.0-13.0,0bfgjr1o22,control,,<div class='container'><div class='ball'><div class='redline'></div> <div class='dot2a'></div> </div></div></div><button onclick = 'DoAnimation();'>Please click here for animation!</button>,0,testing.13,testing,The green circle,moves from red upward.,notAnotB
6522,NA,,html-button-delay-response,14,109286,0.0-14.0,0bfgjr1o22,control,,<div class='container'><div class='ball'><div class='redline'></div> <div class='dot4'></div> </div></div></div><button onclick = 'DoAnimation();'>Please click here for animation!</button>,1,testing.8,testing,The green circle,does not move from red upward.,notAB
6237,NA,,html-button-delay-response,15,116031,0.0-15.0,0bfgjr1o22,control,,<div class='container'><div class='ball'><div class='redline'></div> <div class='dot1'></div> </div></div></div><button onclick = 'DoAnimation();'>Please click here for animation!</button>,0,testing.5,testing,The green circle,moves from red upward.,notAB
4999,NA,,html-button-delay-response,16,121537,0.0-16.0,0bfgjr1o22,control,,<div class='container'><div class='ball'><div class='redline'></div> <div class='dot3a'></div> </div></div></div><button onclick = 'DoAnimation();'>Please click here for animation!</button>,0,testing.14,testing,The green circle,moves from red upward.,notAnotB
5900,NA,,html-button-delay-response,17,127945,0.0-17.0,0bfgjr1o22,control,,<div class='container'><div class='ball'><div class='redline'></div> <div class='dot2'></div> </div></div></div><button onclick = 'DoAnimation();'>Please click here for animation!</button>,1,testing.6,testing,The green circle,does not move from red upward.,notAB
5026,NA,,html-button-delay-response,18,133478,0.0-18.0,0bfgjr1o22,control,,<div class='container'><div class='ball'><div class='redline'></div> <div class='dot1a'></div><div class='dot2a'></div><div class='dot3a'></div><div class='dot4a'></div> </div></div></div><button onclick = 'DoAnimation();'>Please click here for animation!</button>,0,testing.22,testing,None of the green circles,moves from red upward.,none_true_existential
5096,NA,,html-button-delay-response,19,139080,0.0-19.0,0bfgjr1o22,control,,<div class='container'><div class='ball'><div class='redline'></div> <div class='wug1b'></div><div class='wug2b'></div><div class='wug3b'></div><div class='wug4b'></div> </div></div></div><button onclick = 'DoAnimation();'>Please click here for animation!</button>,0,testing.17,testing,Every green circle,moves from red upward.,all_true_existential
12468,NA,,html-button-delay-response,20,152055,0.0-20.0,0bfgjr1o22,control,,<div class='container'><div class='ball'><div class='redline'></div> <div class='dot7'></div><div class='dot8'></div><div class='dot5'></div><div class='dot6'></div> </div></div></div><button onclick = 'DoAnimation();'>Please click here for animation!</button>,1,testing.24,testing,None of the green circles,moves from red upward.,none_true_universal
11231,NA,,html-button-delay-response,21,163792,0.0-21.0,0bfgjr1o22,control,,<div class='container'><div class='ball'><div class='redline'></div> <div class='dot1a'></div><div class='dot2a'></div><div class='dot3b'></div><div class='dot4b'></div> </div></div></div><button onclick = 'DoAnimation();'>Please click here for animation!</button>,1,testing.23,testing,None of the green circles,moves from red upward.,none_true_no_projection
4708,NA,,html-button-delay-response,22,169009,0.0-22.0,0bfgjr1o22,control,,<div class='container'><div class='ball'><div class='redline'></div> <div class='wug1b'></div><div class='wug2b'></div><div class='wug3a'></div><div class='wug4a'></div> </div></div></div><button onclick = 'DoAnimation();'>Please click here for animation!</button>,1,testing.18,testing,Every green circle,moves from red upward.,all_true_universal
4358,NA,,html-button-delay-response,23,173874,0.0-23.0,0bfgjr1o22,control,,<div class='container'><div class='ball'><div class='redline'></div> <div class='dot1'></div><div class='dot2'></div><div class='dot3'></div><div class='wug4'></div> </div></div></div><button onclick = 'DoAnimation();'>Please click here for animation!</button>,0,testing.20,testing,None of the green circles,moves from red upward.,none_false
4790,NA,,html-button-delay-response,24,179170,0.0-24.0,0bfgjr1o22,control,,<div class='container'><div class='ball'><div class='redline'></div> <div class='wug1b'></div><div class='wug2b'></div><div class='dot3b'></div><div class='wug4b'></div> </div></div></div><button onclick = 'DoAnimation();'>Please click here for animation!</button>,0,testing.21,testing,Every green circle,moves from red upward.,all_false
3557,NA,,html-button-delay-response,25,183235,0.0-25.0,0bfgjr1o22,control,,<div class='container'><div class='ball'><div class='redline'></div> <div class='wug1a'></div><div class='wug2a'></div><div class='wug3a'></div><div class='wug4a'></div> </div></div></div><button onclick = 'DoAnimation();'>Please click here for animation!</button>,0,testing.19,testing,Every green circle,moves from red upward.,all_true_no_projection
12664,['wugging had to do with the red line'],self_report,survey-multi-select,26,196424,0.0-26.0,0bfgjr1o22,control,,,,,,,,
33688,none,demo.1,survey-dropdown,27,230129,0.0-27.0,0bfgjr1o22,control,,,,,,,,
33688,none,demo.2,survey-dropdown,27,230129,0.0-27.0,0bfgjr1o22,control,,,,,,,,
33688,female,demo.3,survey-dropdown,27,230129,0.0-27.0,0bfgjr1o22,control,,,,,,,,
33688,12-24,demo.4,survey-dropdown,27,230129,0.0-27.0,0bfgjr1o22,control,,,,,,,,
6323,5f830f1644cc14447b03305c,ProlificID,survey-text,0,6328,0.0-0.0,xcqpa6u5l0,control,,,,,,,,
2384,NA,instructions,instructions,1,8714,0.0-1.0,xcqpa6u5l0,control,"[{""page_index"":0,""viewing_time"":2383}]",,,,,,,
80420,NA,,html-button-delay-response,2,89141,0.0-2.0,xcqpa6u5l0,control,,<div class='container'><div class='ball'><div class='redline'></div> <div class='wug2'></div> </div></div></div><button onclick = 'DoAnimation();'>Please click here for animation!</button>,0,testing.2,testing,The green circle,does not move from red upward.,AB
3766,NA,,html-button-delay-response,3,93411,0.0-3.0,xcqpa6u5l0,control,,<div class='container'><div class='ball'><div class='redline'></div> <div class='dot2'></div> </div></div></div><button onclick = 'DoAnimation();'>Please click here for animation!</button>,1,testing.6,testing,The green circle,does not move from red upward.,notAB
2713,NA,,html-button-delay-response,4,96627,0.0-4.0,xcqpa6u5l0,control,,<div class='container'><div class='ball'><div class='redline'></div> <div class='wug1'></div> </div></div></div><button onclick = 'DoAnimation();'>Please click here for animation!</button>,1,testing.1,testing,The green circle,moves from red upward.,AB
2394,NA,,html-button-delay-response,5,99525,0.0-5.0,xcqpa6u5l0,control,,<div class='container'><div class='ball'><div class='redline'></div> <div class='wug1b'></div> </div></div></div><button onclick = 'DoAnimation();'>Please click here for animation!</button>,0,testing.9,testing,The green circle,moves from red upward.,AnotB
4941,NA,,html-button-delay-response,6,104969,0.0-6.0,xcqpa6u5l0,control,,<div class='container'><div class='ball'><div class='redline'></div> <div class='wug4'></div> </div></div></div><button onclick = 'DoAnimation();'>Please click here for animation!</button>,0,testing.4,testing,The green circle,does not move from red upward.,AB
3345,NA,,html-button-delay-response,7,108819,0.0-7.0,xcqpa6u5l0,control,,<div class='container'><div class='ball'><div class='redline'></div> <div class='dot4'></div> </div></div></div><button onclick = 'DoAnimation();'>Please click here for animation!</button>,0,testing.8,testing,The green circle,does not move from red upward.,notAB
3241,NA,,html-button-delay-response,8,112564,0.0-8.0,xcqpa6u5l0,control,,<div class='container'><div class='ball'><div class='redline'></div> <div class='dot2a'></div> </div></div></div><button onclick = 'DoAnimation();'>Please click here for animation!</button>,0,testing.13,testing,The green circle,moves from red upward.,notAnotB
7532,NA,,html-button-delay-response,9,120599,0.0-9.0,xcqpa6u5l0,control,,<div class='container'><div class='ball'><div class='redline'></div> <div class='dot1'></div> </div></div></div><button onclick = 'DoAnimation();'>Please click here for animation!</button>,0,testing.5,testing,The green circle,moves from red upward.,notAB
38548,NA,,html-button-delay-response,10,159651,0.0-10.0,xcqpa6u5l0,control,,<div class='container'><div class='ball'><div class='redline'></div> <div class='dot4a'></div> </div></div></div><button onclick = 'DoAnimation();'>Please click here for animation!</button>,1,testing.16,testing,The green circle,does not move from red upward.,notAnotB
2451,NA,,html-button-delay-response,11,162605,0.0-11.0,xcqpa6u5l0,control,,<div class='container'><div class='ball'><div class='redline'></div> <div class='wug4b'></div> </div></div></div><button onclick = 'DoAnimation();'>Please click here for animation!</button>,1,testing.12,testing,The green circle,does not move from red upward.,AnotB
2703,NA,,html-button-delay-response,12,165811,0.0-12.0,xcqpa6u5l0,control,,<div class='container'><div class='ball'><div class='redline'></div> <div class='wug3b'></div> </div></div></div><button onclick = 'DoAnimation();'>Please click here for animation!</button>,1,testing.11,testing,The green circle,does not move from red upward.,AnotB
4417,NA,,html-button-delay-response,13,170733,0.0-13.0,xcqpa6u5l0,control,,<div class='container'><div class='ball'><div class='redline'></div> <div class='dot1a'></div> </div></div></div><button onclick = 'DoAnimation();'>Please click here for animation!</button>,1,testing.15,testing,The green circle,does not move from red upward.,notAnotB
2322,NA,,html-button-delay-response,14,173558,0.0-14.0,xcqpa6u5l0,control,,<div class='container'><div class='ball'><div class='redline'></div> <div class='wug3'></div> </div></div></div><button onclick = 'DoAnimation();'>Please click here for animation!</button>,1,testing.3,testing,The green circle,moves from red upward.,AB
2362,NA,,html-button-delay-response,15,176424,0.0-15.0,xcqpa6u5l0,control,,<div class='container'><div class='ball'><div class='redline'></div> <div class='wug2b'></div> </div></div></div><button onclick = 'DoAnimation();'>Please click here for animation!</button>,0,testing.10,testing,The green circle,moves from red upward.,AnotB
2401,NA,,html-button-delay-response,16,179329,0.0-16.0,xcqpa6u5l0,control,,<div class='container'><div class='ball'><div class='redline'></div> <div class='dot3'></div> </div></div></div><button onclick = 'DoAnimation();'>Please click here for animation!</button>,1,testing.7,testing,The green circle,moves from red upward.,notAB
2355,NA,,html-button-delay-response,17,182187,0.0-17.0,xcqpa6u5l0,control,,<div class='container'><div class='ball'><div class='redline'></div> <div class='dot3a'></div> </div></div></div><button onclick = 'DoAnimation();'>Please click here for animation!</button>,0,testing.14,testing,The green circle,moves from red upward.,notAnotB
2998,NA,,html-button-delay-response,18,185689,0.0-18.0,xcqpa6u5l0,control,,<div class='container'><div class='ball'><div class='redline'></div> <div class='wug1b'></div><div class='wug2b'></div><div class='wug3b'></div><div class='wug4b'></div> </div></div></div><button onclick = 'DoAnimation();'>Please click here for animation!</button>,0,testing.17,testing,Every green circle,moves from red upward.,all_true_existential
3053,NA,,html-button-delay-response,19,189247,0.0-19.0,xcqpa6u5l0,control,,<div class='container'><div class='ball'><div class='redline'></div> <div class='dot1a'></div><div class='dot2a'></div><div class='dot3b'></div><div class='dot4b'></div> </div></div></div><button onclick = 'DoAnimation();'>Please click here for animation!</button>,1,testing.23,testing,None of the green circles,moves from red upward.,none_true_no_projection
4066,NA,,html-button-delay-response,20,193817,0.0-20.0,xcqpa6u5l0,control,,<div class='container'><div class='ball'><div class='redline'></div> <div class='wug1a'></div><div class='wug2a'></div><div class='wug3a'></div><div class='wug4a'></div> </div></div></div><button onclick = 'DoAnimation();'>Please click here for animation!</button>,0,testing.19,testing,Every green circle,moves from red upward.,all_true_no_projection
2295,NA,,html-button-delay-response,21,196617,0.0-21.0,xcqpa6u5l0,control,,<div class='container'><div class='ball'><div class='redline'></div> <div class='wug1b'></div><div class='wug2b'></div><div class='wug3a'></div><div class='wug4a'></div> </div></div></div><button onclick = 'DoAnimation();'>Please click here for animation!</button>,1,testing.18,testing,Every green circle,moves from red upward.,all_true_universal
3587,NA,,html-button-delay-response,22,200707,0.0-22.0,xcqpa6u5l0,control,,<div class='container'><div class='ball'><div class='redline'></div> <div class='dot1'></div><div class='dot2'></div><div class='dot3'></div><div class='wug4'></div> </div></div></div><button onclick = 'DoAnimation();'>Please click here for animation!</button>,0,testing.20,testing,None of the green circles,moves from red upward.,none_false
4857,NA,,html-button-delay-response,23,206068,0.0-23.0,xcqpa6u5l0,control,,<div class='container'><div class='ball'><div class='redline'></div> <div class='dot7'></div><div class='dot8'></div><div class='dot5'></div><div class='dot6'></div> </div></div></div><button onclick = 'DoAnimation();'>Please click here for animation!</button>,0,testing.24,testing,None of the green circles,moves from red upward.,none_true_universal
2328,NA,,html-button-delay-response,24,208899,0.0-24.0,xcqpa6u5l0,control,,<div class='container'><div class='ball'><div class='redline'></div> <div class='wug1b'></div><div class='wug2b'></div><div class='dot3b'></div><div class='wug4b'></div> </div></div></div><button onclick = 'DoAnimation();'>Please click here for animation!</button>,1,testing.21,testing,Every green circle,moves from red upward.,all_false
2967,NA,,html-button-delay-response,25,212369,0.0-25.0,xcqpa6u5l0,control,,<div class='container'><div class='ball'><div class='redline'></div> <div class='dot1a'></div><div class='dot2a'></div><div class='dot3a'></div><div class='dot4a'></div> </div></div></div><button onclick = 'DoAnimation();'>Please click here for animation!</button>,0,testing.22,testing,None of the green circles,moves from red upward.,none_true_existential
7338,['wugging had to do with the lower or upper half of the grey circle'],self_report,survey-multi-select,26,220217,0.0-26.0,xcqpa6u5l0,control,,,,,,,,
14157,2+ug,demo.1,survey-dropdown,27,234386,0.0-27.0,xcqpa6u5l0,control,,,,,,,,
14157,none,demo.2,survey-dropdown,27,234386,0.0-27.0,xcqpa6u5l0,control,,,,,,,,
14157,female,demo.3,survey-dropdown,27,234386,0.0-27.0,xcqpa6u5l0,control,,,,,,,,
14157,-20,demo.4,survey-dropdown,27,234386,0.0-27.0,xcqpa6u5l0,control,,,,,,,,
6335,5f23146c980263089af82961,ProlificID,survey-text,0,6337,0.0-0.0,0dr8o6jmss,wug=red,,,,,,,,
19427,NA,instructions,instructions,1,25765,0.0-1.0,0dr8o6jmss,wug=red,"[{""page_index"":0,""viewing_time"":19427}]",,,,,,,
28463,NA,,html-button-delay-response,2,54228,0.0-2.0,0dr8o6jmss,wug=red,,<div class='container'><div class='ball'><div class='redline'></div> <div class='wug1'></div></div></div></div><button onclick = 'DoAnimation();'>Please click here for animation!</button>,0,teaching.1,teaching,The green circle,,
7400,NA,,html-button-delay-response,3,62138,0.0-3.0,0dr8o6jmss,wug=red,,<div class='container'><div class='ball'><div class='redline'></div> <div class='wug2'></div></div></div></div><button onclick = 'DoAnimation();'>Please click here for animation!</button>,0,teaching.2,teaching,The green circle,,
5857,NA,,html-button-delay-response,4,68505,0.0-4.0,0dr8o6jmss,wug=red,,<div class='container'><div class='ball'><div class='redline'></div> <div class='dot4'></div></div></div></div><button onclick = 'DoAnimation();'>Please click here for animation!</button>,0,teaching.8,teaching,The green circle,,
4222,NA,,html-button-delay-response,5,73238,0.0-5.0,0dr8o6jmss,wug=red,,<div class='container'><div class='ball'><div class='redline'></div> <div class='wug3'></div></div></div></div><button onclick = 'DoAnimation();'>Please click here for animation!</button>,0,teaching.3,teaching,The green circle,,
4084,NA,,html-button-delay-response,6,77835,0.0-6.0,0dr8o6jmss,wug=red,,<div class='container'><div class='ball'><div class='redline'></div> <div class='dot2'></div></div></div></div><button onclick = 'DoAnimation();'>Please click here for animation!</button>,0,teaching.5,teaching,The green circle,,
4785,NA,,html-button-delay-response,7,83127,0.0-7.0,0dr8o6jmss,wug=red,,<div class='container'><div class='ball'><div class='redline'></div> <div class='dot3'></div></div></div></div><button onclick = 'DoAnimation();'>Please click here for animation!</button>,0,teaching.6,teaching,The green circle,,
2755,NA,,html-button-delay-response,8,86391,0.0-8.0,0dr8o6jmss,wug=red,,<div class='container'><div class='ball'><div class='redline'></div> <div class='dot1'></div></div></div></div><button onclick = 'DoAnimation();'>Please click here for animation!</button>,0,teaching.7,teaching,The green circle,,
3336,NA,,html-button-delay-response,9,90228,0.0-9.0,0dr8o6jmss,wug=red,,<div class='container'><div class='ball'><div class='redline'></div> <div class='wug4'></div></div></div></div><button onclick = 'DoAnimation();'>Please click here for animation!</button>,0,teaching.4,teaching,The green circle,,
2805,NA,break,html-button-response,10,93541,0.0-10.0,0dr8o6jmss,wug=red,,"<p style='text-align:center'>Now, let's see how <b>you</b> use <i>wug</i>! You will see animations and will be asked to make a decision.</p>",0,,,,,
5484,NA,,html-button-delay-response,11,99026,0.0-11.0,0dr8o6jmss,wug=red,,<div class='container'><div class='ball'><div class='redline'></div> <div class='wug1'></div> </div></div></div><button onclick = 'DoAnimation();'>Please click here animation!</button>,0,testing.1,testing,The green circle,does not wug.,AB
4534,NA,,html-button-delay-response,12,104070,0.0-12.0,0dr8o6jmss,wug=red,,<div class='container'><div class='ball'><div class='redline'></div> <div class='wug2'></div> </div></div></div><button onclick = 'DoAnimation();'>Please click here animation!</button>,0,testing.2,testing,The green circle,wugs.,AB
4023,NA,,html-button-delay-response,13,108599,0.0-13.0,0dr8o6jmss,wug=red,,<div class='container'><div class='ball'><div class='redline'></div> <div class='dot4'></div> </div></div></div><button onclick = 'DoAnimation();'>Please click here animation!</button>,0,testing.4,testing,The green circle,wugs.,notAB
2863,NA,,html-button-delay-response,14,111977,0.0-14.0,0dr8o6jmss,wug=red,,<div class='container'><div class='ball'><div class='redline'></div> <div class='dot3'></div> </div></div></div><button onclick = 'DoAnimation();'>Please click here animation!</button>,1,testing.3,testing,The green circle,does not wug.,notAB
3754,NA,,html-button-delay-response,15,116234,0.0-15.0,0dr8o6jmss,wug=red,,<div class='container'><div class='ball'><div class='redline'></div> <div class='dot3a'></div> </div></div></div><button onclick = 'DoAnimation();'>Please click here animation!</button>,1,testing.10,testing,The green circle,does not wug.,notAnotB
4929,NA,,html-button-delay-response,16,121671,0.0-16.0,0dr8o6jmss,wug=red,,<div class='container'><div class='ball'><div class='redline'></div> <div class='dot1a'></div> </div></div></div><button onclick = 'DoAnimation();'>Please click here animation!</button>,0,testing.11,testing,The green circle,wugs.,notAnotB
2717,NA,,html-button-delay-response,17,124891,0.0-17.0,0dr8o6jmss,wug=red,,<div class='container'><div class='ball'><div class='redline'></div> <div class='dot4a'></div> </div></div></div><button onclick = 'DoAnimation();'>Please click here animation!</button>,1,testing.12,testing,The green circle,does not wug.,notAnotB
3560,NA,,html-button-delay-response,18,128968,0.0-18.0,0dr8o6jmss,wug=red,,<div class='container'><div class='ball'><div class='redline'></div> <div class='wug1b'></div> </div></div></div><button onclick = 'DoAnimation();'>Please click here animation!</button>,1,testing.5,testing,The green circle,wugs.,AnotB
2679,NA,,html-button-delay-response,19,132155,0.0-19.0,0dr8o6jmss,wug=red,,<div class='container'><div class='ball'><div class='redline'></div> <div class='wug3b'></div> </div></div></div><button onclick = 'DoAnimation();'>Please click here animation!</button>,1,testing.7,testing,The green circle,wugs.,AnotB
3359,NA,,html-button-delay-response,20,136017,0.0-20.0,0dr8o6jmss,wug=red,,<div class='container'><div class='ball'><div class='redline'></div> <div class='dot2a'></div> </div></div></div><button onclick = 'DoAnimation();'>Please click here animation!</button>,0,testing.9,testing,The green circle,wugs.,notAnotB
3279,NA,,html-button-delay-response,21,139804,0.0-21.0,0dr8o6jmss,wug=red,,<div class='container'><div class='ball'><div class='redline'></div> <div class='wug2b'></div> </div></div></div><button onclick = 'DoAnimation();'>Please click here animation!</button>,0,testing.6,testing,The green circle,does not wug.,AnotB
2698,NA,,html-button-delay-response,22,143016,0.0-22.0,0dr8o6jmss,wug=red,,<div class='container'><div class='ball'><div class='redline'></div> <div class='wug4b'></div> </div></div></div><button onclick = 'DoAnimation();'>Please click here animation!</button>,0,testing.8,testing,The green circle,does not wug.,AnotB
3981,NA,,html-button-delay-response,23,147502,0.0-23.0,0dr8o6jmss,wug=red,,<div class='container'><div class='ball'><div class='redline'></div> <div class='dot7'></div><div class='dot8'></div><div class='dot5'></div><div class='dot6'></div> </div></div></div><button onclick = 'DoAnimation();'>Please click here animation!</button>,1,testing.20,testing,None of the green circles,wugs.,none_true_universal
3892,NA,,html-button-delay-response,24,151905,0.0-24.0,0dr8o6jmss,wug=red,,<div class='container'><div class='ball'><div class='redline'></div> <div class='dot1a'></div><div class='dot2a'></div><div class='dot3b'></div><div class='dot4b'></div> </div></div></div><button onclick = 'DoAnimation();'>Please click here animation!</button>,0,testing.19,testing,None of the green circles,wugs.,none_true_no_projection
4591,NA,,html-button-delay-response,25,157000,0.0-25.0,0dr8o6jmss,wug=red,,<div class='container'><div class='ball'><div class='redline'></div> <div class='dot1'></div><div class='dot2'></div><div class='dot3'></div><div class='wug4'></div> </div></div></div><button onclick = 'DoAnimation();'>Please click here animation!</button>,0,testing.16,testing,None of the green circles,wugs.,none_false
3111,NA,,html-button-delay-response,26,160615,0.0-26.0,0dr8o6jmss,wug=red,,<div class='container'><div class='ball'><div class='redline'></div> <div class='wug1b'></div><div class='wug2b'></div><div class='dot3b'></div><div class='wug4b'></div> </div></div></div><button onclick = 'DoAnimation();'>Please click here animation!</button>,0,testing.17,testing,Every green circle,wugs.,all_false
2530,NA,,html-button-delay-response,27,163658,0.0-27.0,0dr8o6jmss,wug=red,,<div class='container'><div class='ball'><div class='redline'></div> <div class='wug1a'></div><div class='wug2a'></div><div class='wug3a'></div><div class='wug4a'></div> </div></div></div><button onclick = 'DoAnimation();'>Please click here animation!</button>,1,testing.15,testing,Every green circle,wugs.,all_true_no_projection
3147,NA,,html-button-delay-response,28,167311,0.0-28.0,0dr8o6jmss,wug=red,,<div class='container'><div class='ball'><div class='redline'></div> <div class='dot1a'></div><div class='dot2a'></div><div class='dot3a'></div><div class='dot4a'></div> </div></div></div><button onclick = 'DoAnimation();'>Please click here animation!</button>,1,testing.18,testing,None of the green circles,wugs.,none_true_existential
2395,NA,,html-button-delay-response,29,170211,0.0-29.0,0dr8o6jmss,wug=red,,<div class='container'><div class='ball'><div class='redline'></div> <div class='wug1b'></div><div class='wug2b'></div><div class='wug3b'></div><div class='wug4b'></div> </div></div></div><button onclick = 'DoAnimation();'>Please click here animation!</button>,1,testing.13,testing,Every green circle,wugs.,all_true_existential
2632,NA,,html-button-delay-response,30,173350,0.0-30.0,0dr8o6jmss,wug=red,,<div class='container'><div class='ball'><div class='redline'></div> <div class='wug1b'></div><div class='wug2b'></div><div class='wug3a'></div><div class='wug4a'></div> </div></div></div><button onclick = 'DoAnimation();'>Please click here animation!</button>,1,testing.14,testing,Every green circle,wugs.,all_true_universal
6911,['wugging had to do with the red line'],self_report,survey-multi-select,31,180764,0.0-31.0,0dr8o6jmss,wug=red,,,,,,,,
22314,none,demo.1,survey-dropdown,32,203082,0.0-32.0,0dr8o6jmss,wug=red,,,,,,,,
22314,none,demo.2,survey-dropdown,32,203082,0.0-32.0,0dr8o6jmss,wug=red,,,,,,,,
22314,male,demo.3,survey-dropdown,32,203082,0.0-32.0,0dr8o6jmss,wug=red,,,,,,,,
22314,-20,demo.4,survey-dropdown,32,203082,0.0-32.0,0dr8o6jmss,wug=red,,,,,,,,
5543,5ceea30a2564de0015def67c,ProlificID,survey-text,0,5545,0.0-0.0,4e6eygu973,wug=direction,,,,,,,,
2400,NA,instructions,instructions,1,7945,0.0-1.0,4e6eygu973,wug=direction,"[{""page_index"":0,""viewing_time"":2399}]",,,,,,,
10087,NA,,html-button-delay-response,2,18034,0.0-2.0,4e6eygu973,wug=direction,,<div class='container'><div class='ball'><div class='redline'></div> <div class='wug3b'></div></div></div></div><button onclick = 'DoAnimation();'>Please click here for animation!</button>,0,teaching.7,teaching,The green circle,,
6599,NA,,html-button-delay-response,3,25144,0.0-3.0,4e6eygu973,wug=direction,,<div class='container'><div class='ball'><div class='redline'></div> <div class='wug4b'></div></div></div></div><button onclick = 'DoAnimation();'>Please click here for animation!</button>,0,teaching.8,teaching,The green circle,,
3301,NA,,html-button-delay-response,4,28946,0.0-4.0,4e6eygu973,wug=direction,,<div class='container'><div class='ball'><div class='redline'></div> <div class='wug2'></div></div></div></div><button onclick = 'DoAnimation();'>Please click here for animation!</button>,0,teaching.2,teaching,The green circle,,
2852,NA,,html-button-delay-response,5,32301,0.0-5.0,4e6eygu973,wug=direction,,<div class='container'><div class='ball'><div class='redline'></div> <div class='wug1'></div></div></div></div><button onclick = 'DoAnimation();'>Please click here for animation!</button>,0,teaching.1,teaching,The green circle,,
4367,NA,,html-button-delay-response,6,37170,0.0-6.0,4e6eygu973,wug=direction,,<div class='container'><div class='ball'><div class='redline'></div> <div class='wug1b'></div></div></div></div><button onclick = 'DoAnimation();'>Please click here for animation!</button>,0,teaching.5,teaching,The green circle,,
5033,NA,,html-button-delay-response,7,42714,0.0-7.0,4e6eygu973,wug=direction,,<div class='container'><div class='ball'><div class='redline'></div> <div class='wug2b'></div></div></div></div><button onclick = 'DoAnimation();'>Please click here for animation!</button>,0,teaching.6,teaching,The green circle,,
4179,NA,,html-button-delay-response,8,47410,0.0-8.0,4e6eygu973,wug=direction,,<div class='container'><div class='ball'><div class='redline'></div> <div class='wug3'></div></div></div></div><button onclick = 'DoAnimation();'>Please click here for animation!</button>,0,teaching.3,teaching,The green circle,,
2869,NA,,html-button-delay-response,9,50781,0.0-9.0,4e6eygu973,wug=direction,,<div class='container'><div class='ball'><div class='redline'></div> <div class='wug4'></div></div></div></div><button onclick = 'DoAnimation();'>Please click here for animation!</button>,0,teaching.4,teaching,The green circle,,
2665,NA,break,html-button-response,10,53952,0.0-10.0,4e6eygu973,wug=direction,,"<p style='text-align:center'>Now, let's see how <b>you</b> use <i>wug</i>! You will see animations and will be asked to make a decision.</p>",0,,,,,
3501,NA,,html-button-delay-response,11,57453,0.0-11.0,4e6eygu973,wug=direction,,<div class='container'><div class='ball'><div class='redline'></div> <div class='wug3b'></div> </div></div></div><button onclick = 'DoAnimation();'>Please click here for animation!</button>,1,testing.3,testing,The green circle,does not wug.,notAB
2802,NA,,html-button-delay-response,12,60759,0.0-12.0,4e6eygu973,wug=direction,,<div class='container'><div class='ball'><div class='redline'></div> <div class='wug2'></div> </div></div></div><button onclick = 'DoAnimation();'>Please click here for animation!</button>,1,testing.2,testing,The green circle,wugs.,AB
3040,NA,,html-button-delay-response,13,64309,0.0-13.0,4e6eygu973,wug=direction,,<div class='container'><div class='ball'><div class='redline'></div> <div class='wug1'></div> </div></div></div><button onclick = 'DoAnimation();'>Please click here for animation!</button>,0,testing.1,testing,The green circle,does not wug.,AB
3198,NA,,html-button-delay-response,14,68011,0.0-14.0,4e6eygu973,wug=direction,,<div class='container'><div class='ball'><div class='redline'></div> <div class='wug4b'></div> </div></div></div><button onclick = 'DoAnimation();'>Please click here for animation!</button>,0,testing.4,testing,The green circle,wugs.,notAB
3230,NA,,html-button-delay-response,15,71745,0.0-15.0,4e6eygu973,wug=direction,,<div class='container'><div class='ball'><div class='redline'></div> <div class='dot2'></div> </div></div></div><button onclick = 'DoAnimation();'>Please click here for animation!</button>,0,testing.5,testing,The green circle,wugs.,AnotB
3109,NA,,html-button-delay-response,16,75356,0.0-16.0,4e6eygu973,wug=direction,,<div class='container'><div class='ball'><div class='redline'></div> <div class='dot1'></div> </div></div></div><button onclick = 'DoAnimation();'>Please click here for animation!</button>,0,testing.7,testing,The green circle,wugs.,AnotB
2926,NA,,html-button-delay-response,17,78784,0.0-17.0,4e6eygu973,wug=direction,,<div class='container'><div class='ball'><div class='redline'></div> <div class='dot1a'></div> </div></div></div><button onclick = 'DoAnimation();'>Please click here for animation!</button>,0,testing.11,testing,The green circle,wugs.,notAnotB
6835,NA,,html-button-delay-response,18,86129,0.0-18.0,4e6eygu973,wug=direction,,<div class='container'><div class='ball'><div class='redline'></div> <div class='dot3'></div> </div></div></div><button onclick = 'DoAnimation();'>Please click here for animation!</button>,0,testing.6,testing,The green circle,does not wug.,AnotB
3130,NA,,html-button-delay-response,19,89766,0.0-19.0,4e6eygu973,wug=direction,,<div class='container'><div class='ball'><div class='redline'></div> <div class='dot4a'></div> </div></div></div><button onclick = 'DoAnimation();'>Please click here for animation!</button>,0,testing.12,testing,The green circle,does not wug.,notAnotB
2794,NA,,html-button-delay-response,20,93068,0.0-20.0,4e6eygu973,wug=direction,,<div class='container'><div class='ball'><div class='redline'></div> <div class='dot3a'></div> </div></div></div><button onclick = 'DoAnimation();'>Please click here for animation!</button>,0,testing.10,testing,The green circle,does not wug.,notAnotB
3070,NA,,html-button-delay-response,21,96653,0.0-21.0,4e6eygu973,wug=direction,,<div class='container'><div class='ball'><div class='redline'></div> <div class='dot2a'></div> </div></div></div><button onclick = 'DoAnimation();'>Please click here for animation!</button>,0,testing.9,testing,The green circle,wugs.,notAnotB
3137,NA,,html-button-delay-response,22,100307,0.0-22.0,4e6eygu973,wug=direction,,<div class='container'><div class='ball'><div class='redline'></div> <div class='dot4'></div> </div></div></div><button onclick = 'DoAnimation();'>Please click here for animation!</button>,1,testing.8,testing,The green circle,does not wug.,AnotB
3876,NA,,html-button-delay-response,23,104685,0.0-23.0,4e6eygu973,wug=direction,,<div class='container'><div class='ball'><div class='redline'></div> <div class='wug1a'></div><div class='dot2a'></div><div class='wug3a'></div><div class='wug4a'></div> </div></div></div><button onclick = 'DoAnimation();'>Please click here for animation!</button>,1,testing.18,testing,None of the green circles,wugs.,none_true_existential
2948,NA,,html-button-delay-response,24,108134,0.0-24.0,4e6eygu973,wug=direction,,<div class='container'><div class='ball'><div class='redline'></div> <div class='wug1a'></div><div class='wug2a'></div><div class='wug3a'></div><div class='wug4a'></div> </div></div></div><button onclick = 'DoAnimation();'>Please click here for animation!</button>,1,testing.15,testing,None of the green circles,wugs.,none_true_universal
2828,NA,,html-button-delay-response,25,111465,0.0-25.0,4e6eygu973,wug=direction,,<div class='container'><div class='ball'><div class='redline'></div> <div class='dot1a'></div><div class='dot2a'></div><div class='dot3b'></div><div class='dot4b'></div> </div></div></div><button onclick = 'DoAnimation();'>Please click here for animation!</button>,1,testing.19,testing,None of the green circles,wugs.,none_true_no_projection
2760,NA,,html-button-delay-response,26,114727,0.0-26.0,4e6eygu973,wug=direction,,<div class='container'><div class='ball'><div class='redline'></div> <div class='wug1b'></div><div class='wug2b'></div><div class='wug3b'></div><div class='wug4b'></div> </div></div></div><button onclick = 'DoAnimation();'>Please click here for animation!</button>,1,testing.13,testing,Every green circle,wugs.,all_true_universal
2630,NA,,html-button-delay-response,27,117859,0.0-27.0,4e6eygu973,wug=direction,,<div class='container'><div class='ball'><div class='redline'></div> <div class='dot7'></div><div class='dot8'></div><div class='dot5'></div><div class='dot6'></div> </div></div></div><button onclick = 'DoAnimation();'>Please click here for animation!</button>,0,testing.20,testing,Every green circles,wugs.,all_true_no_projection
3054,NA,,html-button-delay-response,28,121418,0.0-28.0,4e6eygu973,wug=direction,,<div class='container'><div class='ball'><div class='redline'></div> <div class='wug1a'></div><div class='wug2b'></div><div class='wug3a'></div><div class='wug4b'></div> </div></div></div><button onclick = 'DoAnimation();'>Please click here for animation!</button>,0,testing.16,testing,None of the green circles,wugs.,none_false
2532,NA,,html-button-delay-response,29,124452,0.0-29.0,4e6eygu973,wug=direction,,<div class='container'><div class='ball'><div class='redline'></div> <div class='wug1b'></div><div class='wug2b'></div><div class='wug3a'></div><div class='wug4a'></div> </div></div></div><button onclick = 'DoAnimation();'>Please click here for animation!</button>,0,testing.14,testing,Every green circle,wugs.,all_false
2726,NA,,html-button-delay-response,30,127680,0.0-30.0,4e6eygu973,wug=direction,,<div class='container'><div class='ball'><div class='redline'></div> <div class='wug1b'></div><div class='wug2b'></div><div class='dot3b'></div><div class='wug4b'></div> </div></div></div><button onclick = 'DoAnimation();'>Please click here for animation!</button>,0,testing.17,testing,Every green circle,wugs.,all_true_existential
10171,['wugging had to do with the red line'],self_report,survey-multi-select,31,138355,0.0-31.0,4e6eygu973,wug=direction,,,,,,,,
14435,2+ug,demo.1,survey-dropdown,32,152795,0.0-32.0,4e6eygu973,wug=direction,,,,,,,,
14435,none,demo.2,survey-dropdown,32,152795,0.0-32.0,4e6eygu973,wug=direction,,,,,,,,
14435,male,demo.3,survey-dropdown,32,152795,0.0-32.0,4e6eygu973,wug=direction,,,,,,,,
14435,12-24,demo.4,survey-dropdown,32,152795,0.0-32.0,4e6eygu973,wug=direction,,,,,,,,
4792,5f22c5d42d835c03daece002,ProlificID,survey-text,0,4795,0.0-0.0,n46j0st329,wug=red,,,,,,,,
9609,NA,instructions,instructions,1,14406,0.0-1.0,n46j0st329,wug=red,"[{""page_index"":0,""viewing_time"":9607}]",,,,,,,
14794,NA,,html-button-delay-response,2,29204,0.0-2.0,n46j0st329,wug=red,,<div class='container'><div class='ball'><div class='redline'></div> <div class='wug2'></div></div></div></div><button onclick = 'DoAnimation();'>Please click here for animation!</button>,0,teaching.2,teaching,The green circle,,
10706,NA,,html-button-delay-response,3,40421,0.0-3.0,n46j0st329,wug=red,,<div class='container'><div class='ball'><div class='redline'></div> <div class='dot3'></div></div></div></div><button onclick = 'DoAnimation();'>Please click here for animation!</button>,0,teaching.6,teaching,The green circle,,
8549,NA,,html-button-delay-response,4,49479,0.0-4.0,n46j0st329,wug=red,,<div class='container'><div class='ball'><div class='redline'></div> <div class='wug3'></div></div></div></div><button onclick = 'DoAnimation();'>Please click here for animation!</button>,0,teaching.3,teaching,The green circle,,
7511,NA,,html-button-delay-response,5,57501,0.0-5.0,n46j0st329,wug=red,,<div class='container'><div class='ball'><div class='redline'></div> <div class='dot1'></div></div></div></div><button onclick = 'DoAnimation();'>Please click here for animation!</button>,0,teaching.7,teaching,The green circle,,
5472,NA,,html-button-delay-response,6,63485,0.0-6.0,n46j0st329,wug=red,,<div class='container'><div class='ball'><div class='redline'></div> <div class='dot2'></div></div></div></div><button onclick = 'DoAnimation();'>Please click here for animation!</button>,0,teaching.5,teaching,The green circle,,
6024,NA,,html-button-delay-response,7,70019,0.0-7.0,n46j0st329,wug=red,,<div class='container'><div class='ball'><div class='redline'></div> <div class='wug4'></div></div></div></div><button onclick = 'DoAnimation();'>Please click here for animation!</button>,0,teaching.4,teaching,The green circle,,
7037,NA,,html-button-delay-response,8,77574,0.0-8.0,n46j0st329,wug=red,,<div class='container'><div class='ball'><div class='redline'></div> <div class='dot4'></div></div></div></div><button onclick = 'DoAnimation();'>Please click here for animation!</button>,0,teaching.8,teaching,The green circle,,
5007,NA,,html-button-delay-response,9,83094,0.0-9.0,n46j0st329,wug=red,,<div class='container'><div class='ball'><div class='redline'></div> <div class='wug1'></div></div></div></div><button onclick = 'DoAnimation();'>Please click here for animation!</button>,0,teaching.1,teaching,The green circle,,
6784,NA,break,html-button-response,10,90395,0.0-10.0,n46j0st329,wug=red,,"<p style='text-align:center'>Now, let's see how <b>you</b> use <i>wug</i>! You will see animations and will be asked to make a decision.</p>",0,,,,,
6407,NA,,html-button-delay-response,11,96805,0.0-11.0,n46j0st329,wug=red,,<div class='container'><div class='ball'><div class='redline'></div> <div class='dot3'></div> </div></div></div><button onclick = 'DoAnimation();'>Please click here animation!</button>,1,testing.3,testing,The green circle,does not wug.,notAB
4584,NA,,html-button-delay-response,12,101905,0.0-12.0,n46j0st329,wug=red,,<div class='container'><div class='ball'><div class='redline'></div> <div class='dot4'></div> </div></div></div><button onclick = 'DoAnimation();'>Please click here animation!</button>,0,testing.4,testing,The green circle,wugs.,notAB
3892,NA,,html-button-delay-response,13,106310,0.0-13.0,n46j0st329,wug=red,,<div class='container'><div class='ball'><div class='redline'></div> <div class='wug2'></div> </div></div></div><button onclick = 'DoAnimation();'>Please click here animation!</button>,1,testing.2,testing,The green circle,wugs.,AB
8521,NA,,html-button-delay-response,14,115337,0.0-14.0,n46j0st329,wug=red,,<div class='container'><div class='ball'><div class='redline'></div> <div class='wug1'></div> </div></div></div><button onclick = 'DoAnimation();'>Please click here animation!</button>,0,testing.1,testing,The green circle,does not wug.,AB
10923,NA,,html-button-delay-response,15,126771,0.0-15.0,n46j0st329,wug=red,,<div class='container'><div class='ball'><div class='redline'></div> <div class='wug2b'></div> </div></div></div><button onclick = 'DoAnimation();'>Please click here animation!</button>,0,testing.6,testing,The green circle,does not wug.,AnotB
9119,NA,,html-button-delay-response,16,136392,0.0-16.0,n46j0st329,wug=red,,<div class='container'><div class='ball'><div class='redline'></div> <div class='dot2a'></div> </div></div></div><button onclick = 'DoAnimation();'>Please click here animation!</button>,0,testing.9,testing,The green circle,wugs.,notAnotB
5969,NA,,html-button-delay-response,17,142879,0.0-17.0,n46j0st329,wug=red,,<div class='container'><div class='ball'><div class='redline'></div> <div class='wug4b'></div> </div></div></div><button onclick = 'DoAnimation();'>Please click here animation!</button>,0,testing.8,testing,The green circle,does not wug.,AnotB
8058,NA,,html-button-delay-response,18,151442,0.0-18.0,n46j0st329,wug=red,,<div class='container'><div class='ball'><div class='redline'></div> <div class='dot4a'></div> </div></div></div><button onclick = 'DoAnimation();'>Please click here animation!</button>,1,testing.12,testing,The green circle,does not wug.,notAnotB
4566,NA,,html-button-delay-response,19,156519,0.0-19.0,n46j0st329,wug=red,,<div class='container'><div class='ball'><div class='redline'></div> <div class='dot1a'></div> </div></div></div><button onclick = 'DoAnimation();'>Please click here animation!</button>,0,testing.11,testing,The green circle,wugs.,notAnotB
3948,NA,,html-button-delay-response,20,160970,0.0-20.0,n46j0st329,wug=red,,<div class='container'><div class='ball'><div class='redline'></div> <div class='wug3b'></div> </div></div></div><button onclick = 'DoAnimation();'>Please click here animation!</button>,1,testing.7,testing,The green circle,wugs.,AnotB
4434,NA,,html-button-delay-response,21,165916,0.0-21.0,n46j0st329,wug=red,,<div class='container'><div class='ball'><div class='redline'></div> <div class='dot3a'></div> </div></div></div><button onclick = 'DoAnimation();'>Please click here animation!</button>,1,testing.10,testing,The green circle,does not wug.,notAnotB
3294,NA,,html-button-delay-response,22,169723,0.0-22.0,n46j0st329,wug=red,,<div class='container'><div class='ball'><div class='redline'></div> <div class='wug1b'></div> </div></div></div><button onclick = 'DoAnimation();'>Please click here animation!</button>,1,testing.5,testing,The green circle,wugs.,AnotB
9770,NA,,html-button-delay-response,23,179996,0.0-23.0,n46j0st329,wug=red,,<div class='container'><div class='ball'><div class='redline'></div> <div class='dot7'></div><div class='dot8'></div><div class='dot5'></div><div class='dot6'></div> </div></div></div><button onclick = 'DoAnimation();'>Please click here animation!</button>,0,testing.20,testing,None of the green circles,wugs.,none_true_universal
7338,NA,,html-button-delay-response,24,187852,0.0-24.0,n46j0st329,wug=red,,<div class='container'><div class='ball'><div class='redline'></div> <div class='dot1'></div><div class='dot2'></div><div class='dot3'></div><div class='wug4'></div> </div></div></div><button onclick = 'DoAnimation();'>Please click here animation!</button>,0,testing.16,testing,None of the green circles,wugs.,none_false
6338,NA,,html-button-delay-response,25,194702,0.0-25.0,n46j0st329,wug=red,,<div class='container'><div class='ball'><div class='redline'></div> <div class='wug1b'></div><div class='wug2b'></div><div class='wug3a'></div><div class='wug4a'></div> </div></div></div><button onclick = 'DoAnimation();'>Please click here animation!</button>,1,testing.14,testing,Every green circle,wugs.,all_true_universal
4343,NA,,html-button-delay-response,26,199555,0.0-26.0,n46j0st329,wug=red,,<div class='container'><div class='ball'><div class='redline'></div> <div class='dot1a'></div><div class='dot2a'></div><div class='dot3b'></div><div class='dot4b'></div> </div></div></div><button onclick = 'DoAnimation();'>Please click here animation!</button>,1,testing.19,testing,None of the green circles,wugs.,none_true_no_projection
9843,NA,,html-button-delay-response,27,209905,0.0-27.0,n46j0st329,wug=red,,<div class='container'><div class='ball'><div class='redline'></div> <div class='dot1a'></div><div class='dot2a'></div><div class='dot3a'></div><div class='dot4a'></div> </div></div></div><button onclick = 'DoAnimation();'>Please click here animation!</button>,1,testing.18,testing,None of the green circles,wugs.,none_true_existential
4340,NA,,html-button-delay-response,28,214750,0.0-28.0,n46j0st329,wug=red,,<div class='container'><div class='ball'><div class='redline'></div> <div class='wug1a'></div><div class='wug2a'></div><div class='wug3a'></div><div class='wug4a'></div> </div></div></div><button onclick = 'DoAnimation();'>Please click here animation!</button>,1,testing.15,testing,Every green circle,wugs.,all_true_no_projection
