rt,responses,questionId,trial_type,trial_index,time_elapsed,internal_node_id,subjectId,group,view_history,stimulus,button_pressed,id,type,shape,color,condition
12361,5dc3545b178fc925f5334145,ProlificID,survey-text,0,12362,0.0-0.0,llkbm1du8d,control,,,,,,,,
3814,NA,instructions,instructions,1,16176,0.0-1.0,llkbm1du8d,control,"[{""page_index"":0,""viewing_time"":3813}]",,,,,,,
9059,NA,,html-button-delay-response,2,25237,0.0-2.0,llkbm1du8d,control,,<div  class = 'container4'> <div class='container3'><div class='palette'><div class='color1'></div><div class='color2'></div><div class='color3'></div><div class='color4'></div><div class='color5_red'></div><div class='color6'></div><div class='color7'></div><div class='color8'></div></div><div class='center'></div><div class='dot56_green'></div></div> </div>,1,testing.1,testing,green circle,,AB
11502,NA,,html-button-delay-response,3,37247,0.0-3.0,llkbm1du8d,control,,<div  class = 'container4'> <div class='container3'><div class='palette'><div class='color1_red'></div><div class='color2'></div><div class='color3'></div><div class='color4'></div><div class='color5'></div><div class='color6'></div><div class='color7'></div><div class='color8'></div></div><div class='center'></div><div class='dot21'></div></div> </div>,0,testing.2,testing,black circle,,notAnotB
7262,NA,,html-button-delay-response,4,45016,0.0-4.0,llkbm1du8d,control,,<div  class = 'container4'> <div class='container5'><div class='palette'><div class='color1'></div><div class='color2'></div><div class='color3'></div><div class='color4'></div><div class='color5'></div><div class='color6_red'></div><div class='color7'></div><div class='color8'></div></div><div class='center'></div><div class='dot67_yellow'></div></div> </div>,0,testing.3,testing,yellow circle,,ABneg
10180,NA,,html-button-delay-response,5,55700,0.0-5.0,llkbm1du8d,control,,<div  class = 'container4'> <div class='container5'><div class='palette'><div class='color1'></div><div class='color2'></div><div class='color3_red'></div><div class='color4'></div><div class='color5'></div><div class='color6'></div><div class='color7'></div><div class='color8'></div></div><div class='center'></div><div class='dot43_green'></div></div> </div>,1,testing.4,testing,green circle,,notAnotBneg
9639,NA,,html-button-delay-response,6,65842,0.0-6.0,llkbm1du8d,control,,<div  class = 'container4'> <div class='container5'><div class='palette'><div class='color1'></div><div class='color2'></div><div class='color3'></div><div class='color4_red'></div><div class='color5'></div><div class='color6'></div><div class='color7'></div><div class='color8'></div></div><div class='center'></div><div class='dot23_green'></div></div> </div>,1,testing.16,testing,green circle,,AnotB_greyneg
8125,NA,,html-button-delay-response,7,74471,0.0-7.0,llkbm1du8d,control,,<div  class = 'container4'> <div class='container5'><div class='palette'><div class='color1'></div><div class='color2'></div><div class='color3_red'></div><div class='color4'></div><div class='color5'></div><div class='color6'></div><div class='color7'></div><div class='color8'></div></div><div class='center'></div><div class='dot32_green'></div></div> </div>,1,testing.10,testing,green circle,,notABneg
6556,NA,,html-button-delay-response,8,81534,0.0-8.0,llkbm1du8d,control,,<div  class = 'container4'> <div class='container3'><div class='palette'><div class='color1'></div><div class='color2'></div><div class='color3_red'></div><div class='color4'></div><div class='color5'></div><div class='color6'></div><div class='color7'></div><div class='color8'></div></div><div class='center'></div><div class='dot32_yellow'></div></div> </div>,0,testing.6,testing,yellow circle,,notAB
6539,NA,,html-button-delay-response,9,88577,0.0-9.0,llkbm1du8d,control,,<div  class = 'container4'> <div class='container3'><div class='palette'><div class='color1'></div><div class='color2'></div><div class='color3'></div><div class='color4'></div><div class='color5'></div><div class='color6_red'></div><div class='color7'></div><div class='color8'></div></div><div class='center'></div><div class='dot56'></div></div> </div>,0,testing.17,testing,black circle,,AnotB_red
8121,NA,,html-button-delay-response,10,97201,0.0-10.0,llkbm1du8d,control,,<div  class = 'container4'> <div class='container5'><div class='palette'><div class='color1'></div><div class='color2'></div><div class='color3_red'></div><div class='color4'></div><div class='color5'></div><div class='color6'></div><div class='color7'></div><div class='color8'></div></div><div class='center'></div><div class='dot23_yellow'></div></div> </div>,1,testing.21,testing,yellow circle,,AnotB_redneg
6879,NA,,html-button-delay-response,11,104584,0.0-11.0,llkbm1du8d,control,,<div  class = 'container4'> <div class='container5'><div class='palette'><div class='color1'></div><div class='color2'></div><div class='color3'></div><div class='color4'></div><div class='color5'></div><div class='color6_red'></div><div class='color7'></div><div class='color8'></div></div><div class='center'></div><div class='dot67'></div></div> </div>,0,testing.26,testing,black circle,,ABneg
5588,NA,,html-button-delay-response,12,110676,0.0-12.0,llkbm1du8d,control,,<div  class = 'container4'> <div class='container3'><div class='palette'><div class='color1'></div><div class='color2'></div><div class='color3'></div><div class='color4'></div><div class='color5_red'></div><div class='color6'></div><div class='color7'></div><div class='color8'></div></div><div class='center'></div><div class='dot78_green'></div></div> </div>,0,testing.13,testing,green circle,,AnotB_grey
8190,NA,,html-button-delay-response,13,119370,0.0-13.0,llkbm1du8d,control,,<div  class = 'container4'> <div class='container5'><div class='palette'><div class='color1'></div><div class='color2_red'></div><div class='color3'></div><div class='color4'></div><div class='color5'></div><div class='color6'></div><div class='color7'></div><div class='color8'></div></div><div class='center'></div><div class='dot32_yellow'></div></div> </div>,1,testing.29,testing,yellow circle,,notAnotBneg
5852,NA,,html-button-delay-response,14,125730,0.0-14.0,llkbm1du8d,control,,<div  class = 'container4'> <div class='container3'><div class='palette'><div class='color1'></div><div class='color2'></div><div class='color3'></div><div class='color4'></div><div class='color5'></div><div class='color6_red'></div><div class='color7'></div><div class='color8'></div></div><div class='center'></div><div class='dot76'></div></div> </div>,0,testing.28,testing,black circle,,notAnotB
6647,NA,,html-button-delay-response,15,132883,0.0-15.0,llkbm1du8d,control,,<div  class = 'container4'> <div class='container5'><div class='palette'><div class='color1'></div><div class='color2'></div><div class='color3'></div><div class='color4'></div><div class='color5'></div><div class='color6'></div><div class='color7_red'></div><div class='color8'></div></div><div class='center'></div><div class='dot67'></div></div> </div>,1,testing.20,testing,black circle,,AnotB_redneg
10498,NA,,html-button-delay-response,16,143886,0.0-16.0,llkbm1du8d,control,,<div  class = 'container4'> <div class='container5'><div class='palette'><div class='color1'></div><div class='color2'></div><div class='color3'></div><div class='color4_red'></div><div class='color5'></div><div class='color6'></div><div class='color7'></div><div class='color8'></div></div><div class='center'></div><div class='dot54_green'></div></div> </div>,1,testing.30,testing,green circle,,notAnotBneg
7945,NA,,html-button-delay-response,17,152333,0.0-17.0,llkbm1du8d,control,,<div  class = 'container4'> <div class='container3'><div class='palette'><div class='color1'></div><div class='color2'></div><div class='color3_red'></div><div class='color4'></div><div class='color5'></div><div class='color6'></div><div class='color7'></div><div class='color8'></div></div><div class='center'></div><div class='dot43_green'></div></div> </div>,0,testing.27,testing,green circle,,notAnotB
6206,NA,,html-button-delay-response,18,159045,0.0-18.0,llkbm1du8d,control,,<div  class = 'container4'> <div class='container3'><div class='palette'><div class='color1'></div><div class='color2'></div><div class='color3'></div><div class='color4'></div><div class='color5'></div><div class='color6'></div><div class='color7_red'></div><div class='color8'></div></div><div class='center'></div><div class='dot45_yellow'></div></div> </div>,0,testing.12,testing,yellow circle,,AnotB_grey
6016,NA,,html-button-delay-response,19,165567,0.0-19.0,llkbm1du8d,control,,<div  class = 'container4'> <div class='container3'><div class='palette'><div class='color1'></div><div class='color2'></div><div class='color3'></div><div class='color4'></div><div class='color5'></div><div class='color6'></div><div class='color7_red'></div><div class='color8'></div></div><div class='center'></div><div class='dot76'></div></div> </div>,0,testing.5,testing,black circle,,notAB
7176,NA,,html-button-delay-response,20,173249,0.0-20.0,llkbm1du8d,control,,<div  class = 'container4'> <div class='container5'><div class='palette'><div class='color1'></div><div class='color2'></div><div class='color3'></div><div class='color4'></div><div class='color5'></div><div class='color6_red'></div><div class='color7'></div><div class='color8'></div></div><div class='center'></div><div class='dot65_yellow'></div></div> </div>,1,testing.9,testing,yellow circle,,notABneg
6799,NA,,html-button-delay-response,21,180555,0.0-21.0,llkbm1du8d,control,,<div  class = 'container4'> <div class='container5'><div class='palette'><div class='color1'></div><div class='color2'></div><div class='color3'></div><div class='color4'></div><div class='color5'></div><div class='color6'></div><div class='color7_red'></div><div class='color8'></div></div><div class='center'></div><div class='dot78_green'></div></div> </div>,0,testing.25,testing,green circle,,ABneg
6996,NA,,html-button-delay-response,22,188054,0.0-22.0,llkbm1du8d,control,,<div  class = 'container4'> <div class='container5'><div class='palette'><div class='color1'></div><div class='color2'></div><div class='color3'></div><div class='color4_red'></div><div class='color5'></div><div class='color6'></div><div class='color7'></div><div class='color8'></div></div><div class='center'></div><div class='dot43'></div></div> </div>,1,testing.8,testing,black circle,,notABneg
5484,NA,,html-button-delay-response,23,194041,0.0-23.0,llkbm1du8d,control,,<div  class = 'container4'> <div class='container3'><div class='palette'><div class='color1'></div><div class='color2_red'></div><div class='color3'></div><div class='color4'></div><div class='color5'></div><div class='color6'></div><div class='color7'></div><div class='color8'></div></div><div class='center'></div><div class='dot56'></div></div> </div>,0,testing.11,testing,black circle,,AnotB_grey
5323,NA,,html-button-delay-response,24,199871,0.0-24.0,llkbm1du8d,control,,<div  class = 'container4'> <div class='container5'><div class='palette'><div class='color1'></div><div class='color2'></div><div class='color3'></div><div class='color4'></div><div class='color5'></div><div class='color6'></div><div class='color7_red'></div><div class='color8'></div></div><div class='center'></div><div class='dot12_yellow'></div></div> </div>,1,testing.15,testing,yellow circle,,AnotB_greyneg
5444,NA,,html-button-delay-response,25,205817,0.0-25.0,llkbm1du8d,control,,<div  class = 'container4'> <div class='container3'><div class='palette'><div class='color1'></div><div class='color2'></div><div class='color3'></div><div class='color4'></div><div class='color5_red'></div><div class='color6'></div><div class='color7'></div><div class='color8'></div></div><div class='center'></div><div class='dot54_green'></div></div> </div>,0,testing.7,testing,green circle,,notAB
6178,NA,,html-button-delay-response,26,212502,0.0-26.0,llkbm1du8d,control,,<div  class = 'container4'> <div class='container5'><div class='palette'><div class='color1'></div><div class='color2_red'></div><div class='color3'></div><div class='color4'></div><div class='color5'></div><div class='color6'></div><div class='color7'></div><div class='color8'></div></div><div class='center'></div><div class='dot67'></div></div> </div>,1,testing.14,testing,black circle,,AnotB_greyneg
5966,NA,,html-button-delay-response,27,218970,0.0-27.0,llkbm1du8d,control,,<div  class = 'container4'> <div class='container3'><div class='palette'><div class='color1'></div><div class='color2_red'></div><div class='color3'></div><div class='color4'></div><div class='color5'></div><div class='color6'></div><div class='color7'></div><div class='color8'></div></div><div class='center'></div><div class='dot12_yellow'></div></div> </div>,0,testing.18,testing,yellow circle,,AnotB_red
8562,NA,,html-button-delay-response,28,228037,0.0-28.0,llkbm1du8d,control,,<div  class = 'container4'> <div class='container5'><div class='palette'><div class='color1'></div><div class='color2'></div><div class='color3'></div><div class='color4'></div><div class='color5_red'></div><div class='color6'></div><div class='color7'></div><div class='color8'></div></div><div class='center'></div><div class='dot45_green'></div></div> </div>,1,testing.22,testing,green circle,,AnotB_redneg
6397,NA,,html-button-delay-response,29,234937,0.0-29.0,llkbm1du8d,control,,<div  class = 'container4'> <div class='container3'><div class='palette'><div class='color1'></div><div class='color2'></div><div class='color3'></div><div class='color4_red'></div><div class='color5'></div><div class='color6'></div><div class='color7'></div><div class='color8'></div></div><div class='center'></div><div class='dot45_yellow'></div></div> </div>,1,testing.24,testing,yellow circle,,AB
7226,NA,,html-button-delay-response,30,242666,0.0-30.0,llkbm1du8d,control,,<div  class = 'container4'> <div class='container3'><div class='palette'><div class='color1'></div><div class='color2_red'></div><div class='color3'></div><div class='color4'></div><div class='color5'></div><div class='color6'></div><div class='color7'></div><div class='color8'></div></div><div class='center'></div><div class='dot23'></div></div> </div>,1,testing.23,testing,black circle,,AB
5460,NA,,html-button-delay-response,31,248630,0.0-31.0,llkbm1du8d,control,,<div  class = 'container4'> <div class='container3'><div class='palette'><div class='color1'></div><div class='color2'></div><div class='color3'></div><div class='color4'></div><div class='color5'></div><div class='color6'></div><div class='color7_red'></div><div class='color8'></div></div><div class='center'></div><div class='dot67_green'></div></div> </div>,0,testing.19,testing,green circle,,AnotB_red
18910,none,demo.1,survey-dropdown,32,268049,0.0-32.0,llkbm1du8d,control,,,,,,,,
18910,none,demo.2,survey-dropdown,32,268049,0.0-32.0,llkbm1du8d,control,,,,,,,,
18910,female,demo.3,survey-dropdown,32,268049,0.0-32.0,llkbm1du8d,control,,,,,,,,
18910,12-24,demo.4,survey-dropdown,32,268049,0.0-32.0,llkbm1du8d,control,,,,,,,,
153226,5fa774ae1bcae04f0bd898b3,ProlificID,survey-text,0,153228,0.0-0.0,ylrrsv735g,no teaching,,,,,,,,
4375,NA,instructions,instructions,1,157605,0.0-1.0,ylrrsv735g,no teaching,"[{""page_index"":0,""viewing_time"":4373}]",,,,,,,
36502,NA,,html-button-delay-response,2,194110,0.0-2.0,ylrrsv735g,no teaching,,<div  class = 'container'> <div class='container3'><div class='palette'><div class='color1_red'></div><div class='color2'></div><div class='color3'></div><div class='color4'></div><div class='color5'></div><div class='color6'></div><div class='color7'></div><div class='color8'></div></div><div class='center'></div><div class='dot12_green'></div></div> </div>,0,,,,,
6151,NA,,html-button-delay-response,3,200762,0.0-3.0,ylrrsv735g,no teaching,,<div  class = 'container'> <div class='container3'><div class='palette'><div class='color1'></div><div class='color2_red'></div><div class='color3'></div><div class='color4'></div><div class='color5'></div><div class='color6'></div><div class='color7'></div><div class='color8'></div></div><div class='center'></div><div class='dot23'></div></div> </div>,0,,,,,
11601,NA,,html-button-delay-response,4,212866,0.0-4.0,ylrrsv735g,no teaching,,<div  class = 'container'> <div class='container3'><div class='palette'><div class='color1'></div><div class='color2'></div><div class='color3_red'></div><div class='color4'></div><div class='color5'></div><div class='color6'></div><div class='color7'></div><div class='color8'></div></div><div class='center'></div><div class='dot34_yellow'></div></div> </div>,0,,,,,
4902,NA,,html-button-delay-response,5,218271,0.0-5.0,ylrrsv735g,no teaching,,<div  class = 'container'> <div class='container3'><div class='palette'><div class='color1'></div><div class='color2'></div><div class='color3_red'></div><div class='color4'></div><div class='color5'></div><div class='color6'></div><div class='color7'></div><div class='color8'></div></div><div class='center'></div><div class='dot34_green'></div></div> </div>,0,,,,,
5596,NA,,html-button-delay-response,6,224368,0.0-6.0,ylrrsv735g,no teaching,,<div  class = 'container'> <div class='container3'><div class='palette'><div class='color1'></div><div class='color2'></div><div class='color3'></div><div class='color4'></div><div class='color5'></div><div class='color6_red'></div><div class='color7'></div><div class='color8'></div></div><div class='center'></div><div class='dot67'></div></div> </div>,0,,,,,
4750,NA,,html-button-delay-response,7,229621,0.0-7.0,ylrrsv735g,no teaching,,<div  class = 'container'> <div class='container3'><div class='palette'><div class='color1'></div><div class='color2'></div><div class='color3'></div><div class='color4'></div><div class='color5'></div><div class='color6'></div><div class='color7_red'></div><div class='color8'></div></div><div class='center'></div><div class='dot78_yellow'></div></div> </div>,0,,,,,
5724,NA,break,html-button-response,8,235847,0.0-8.0,ylrrsv735g,no teaching,,"<p style='text-align:center'>Now, let's see how <b>you</b> use <i>wug</i>! You will see animations and will be asked to make a decision.</p>",0,,,,,
5609,NA,,html-button-delay-response,9,241458,0.0-9.0,ylrrsv735g,no teaching,,<div  class = 'container2'> <div class='container3'><div class='palette'><div class='color1'></div><div class='color2'></div><div class='color3'></div><div class='color4'></div><div class='color5_red'></div><div class='color6'></div><div class='color7'></div><div class='color8'></div></div><div class='center'></div><div class='dot56_green'></div></div> </div>,1,testing.1,testing,green circle,small,AB
4945,NA,,html-button-delay-response,10,246905,0.0-10.0,ylrrsv735g,no teaching,,<div  class = 'container2'> <div class='container3'><div class='palette'><div class='color1_red'></div><div class='color2'></div><div class='color3'></div><div class='color4'></div><div class='color5'></div><div class='color6'></div><div class='color7'></div><div class='color8'></div></div><div class='center'></div><div class='dot21'></div></div> </div>,0,testing.2,testing,black circle,small,notAnotB
6125,NA,,html-button-delay-response,11,253532,0.0-11.0,ylrrsv735g,no teaching,,<div  class = 'container2'> <div class='container3'><div class='palette'><div class='color1'></div><div class='color2'></div><div class='color3'></div><div class='color4'></div><div class='color5'></div><div class='color6_red'></div><div class='color7'></div><div class='color8'></div></div><div class='center'></div><div class='dot67_yellow'></div></div> </div>,0,testing.3,testing,yellow circle,small,ABneg
5994,NA,,html-button-delay-response,12,260029,0.0-12.0,ylrrsv735g,no teaching,,<div  class = 'container2'> <div class='container3'><div class='palette'><div class='color1'></div><div class='color2'></div><div class='color3_red'></div><div class='color4'></div><div class='color5'></div><div class='color6'></div><div class='color7'></div><div class='color8'></div></div><div class='center'></div><div class='dot43_green'></div></div> </div>,0,testing.4,testing,green circle,small,notAnotBneg
8670,NA,,html-button-delay-response,13,269201,0.0-13.0,ylrrsv735g,no teaching,,<div  class = 'container2'> <div class='container3'><div class='palette'><div class='color1'></div><div class='color2'></div><div class='color3'></div><div class='color4'></div><div class='color5'></div><div class='color6_red'></div><div class='color7'></div><div class='color8'></div></div><div class='center'></div><div class='dot65_yellow'></div></div> </div>,0,testing.9,testing,yellow circle,small,notABneg
6397,NA,,html-button-delay-response,14,276101,0.0-14.0,ylrrsv735g,no teaching,,<div  class = 'container2'> <div class='container3'><div class='palette'><div class='color1'></div><div class='color2'></div><div class='color3'></div><div class='color4_red'></div><div class='color5'></div><div class='color6'></div><div class='color7'></div><div class='color8'></div></div><div class='center'></div><div class='dot54_green'></div></div> </div>,1,testing.30,testing,green circle,small,notAnotBneg
5465,NA,,html-button-delay-response,15,282068,0.0-15.0,ylrrsv735g,no teaching,,<div  class = 'container2'> <div class='container3'><div class='palette'><div class='color1'></div><div class='color2'></div><div class='color3'></div><div class='color4_red'></div><div class='color5'></div><div class='color6'></div><div class='color7'></div><div class='color8'></div></div><div class='center'></div><div class='dot45_yellow'></div></div> </div>,1,testing.24,testing,yellow circle,small,AB
5661,NA,,html-button-delay-response,16,288231,0.0-16.0,ylrrsv735g,no teaching,,<div  class = 'container2'> <div class='container3'><div class='palette'><div class='color1'></div><div class='color2'></div><div class='color3'></div><div class='color4'></div><div class='color5'></div><div class='color6'></div><div class='color7_red'></div><div class='color8'></div></div><div class='center'></div><div class='dot45_yellow'></div></div> </div>,0,testing.12,testing,yellow circle,small,AnotB_grey
5291,NA,,html-button-delay-response,17,294024,0.0-17.0,ylrrsv735g,no teaching,,<div  class = 'container2'> <div class='container3'><div class='palette'><div class='color1'></div><div class='color2_red'></div><div class='color3'></div><div class='color4'></div><div class='color5'></div><div class='color6'></div><div class='color7'></div><div class='color8'></div></div><div class='center'></div><div class='dot67'></div></div> </div>,1,testing.14,testing,black circle,small,AnotB_greyneg
5661,NA,,html-button-delay-response,18,300187,0.0-18.0,ylrrsv735g,no teaching,,<div  class = 'container2'> <div class='container3'><div class='palette'><div class='color1'></div><div class='color2'></div><div class='color3_red'></div><div class='color4'></div><div class='color5'></div><div class='color6'></div><div class='color7'></div><div class='color8'></div></div><div class='center'></div><div class='dot43_green'></div></div> </div>,0,testing.27,testing,green circle,small,notAnotB
5974,NA,,html-button-delay-response,19,306663,0.0-19.0,ylrrsv735g,no teaching,,<div  class = 'container2'> <div class='container3'><div class='palette'><div class='color1'></div><div class='color2'></div><div class='color3'></div><div class='color4'></div><div class='color5'></div><div class='color6_red'></div><div class='color7'></div><div class='color8'></div></div><div class='center'></div><div class='dot67'></div></div> </div>,0,testing.26,testing,black circle,small,ABneg
5347,NA,,html-button-delay-response,20,312512,0.0-20.0,ylrrsv735g,no teaching,,<div  class = 'container2'> <div class='container3'><div class='palette'><div class='color1'></div><div class='color2'></div><div class='color3'></div><div class='color4'></div><div class='color5'></div><div class='color6'></div><div class='color7_red'></div><div class='color8'></div></div><div class='center'></div><div class='dot76'></div></div> </div>,1,testing.5,testing,black circle,small,notAB
5854,NA,,html-button-delay-response,21,318868,0.0-21.0,ylrrsv735g,no teaching,,<div  class = 'container2'> <div class='container3'><div class='palette'><div class='color1'></div><div class='color2'></div><div class='color3'></div><div class='color4'></div><div class='color5_red'></div><div class='color6'></div><div class='color7'></div><div class='color8'></div></div><div class='center'></div><div class='dot45_green'></div></div> </div>,1,testing.22,testing,green circle,small,AnotB_redneg
5152,NA,,html-button-delay-response,22,324521,0.0-22.0,ylrrsv735g,no teaching,,<div  class = 'container2'> <div class='container3'><div class='palette'><div class='color1'></div><div class='color2_red'></div><div class='color3'></div><div class='color4'></div><div class='color5'></div><div class='color6'></div><div class='color7'></div><div class='color8'></div></div><div class='center'></div><div class='dot32_yellow'></div></div> </div>,1,testing.29,testing,yellow circle,small,notAnotBneg
4787,NA,,html-button-delay-response,23,329811,0.0-23.0,ylrrsv735g,no teaching,,<div  class = 'container2'> <div class='container3'><div class='palette'><div class='color1'></div><div class='color2'></div><div class='color3'></div><div class='color4'></div><div class='color5'></div><div class='color6'></div><div class='color7_red'></div><div class='color8'></div></div><div class='center'></div><div class='dot67'></div></div> </div>,1,testing.20,testing,black circle,small,AnotB_redneg
7182,NA,,html-button-delay-response,24,337495,0.0-24.0,ylrrsv735g,no teaching,,<div  class = 'container2'> <div class='container3'><div class='palette'><div class='color1'></div><div class='color2'></div><div class='color3'></div><div class='color4'></div><div class='color5'></div><div class='color6_red'></div><div class='color7'></div><div class='color8'></div></div><div class='center'></div><div class='dot76'></div></div> </div>,0,testing.28,testing,black circle,small,notAnotB
4739,NA,,html-button-delay-response,25,342736,0.0-25.0,ylrrsv735g,no teaching,,<div  class = 'container2'> <div class='container3'><div class='palette'><div class='color1'></div><div class='color2'></div><div class='color3'></div><div class='color4_red'></div><div class='color5'></div><div class='color6'></div><div class='color7'></div><div class='color8'></div></div><div class='center'></div><div class='dot23_green'></div></div> </div>,1,testing.16,testing,green circle,small,AnotB_greyneg
5141,NA,,html-button-delay-response,26,348380,0.0-26.0,ylrrsv735g,no teaching,,<div  class = 'container2'> <div class='container3'><div class='palette'><div class='color1'></div><div class='color2'></div><div class='color3'></div><div class='color4'></div><div class='color5_red'></div><div class='color6'></div><div class='color7'></div><div class='color8'></div></div><div class='center'></div><div class='dot78_green'></div></div> </div>,0,testing.13,testing,green circle,small,AnotB_grey
5197,NA,,html-button-delay-response,27,354080,0.0-27.0,ylrrsv735g,no teaching,,<div  class = 'container2'> <div class='container3'><div class='palette'><div class='color1'></div><div class='color2'></div><div class='color3_red'></div><div class='color4'></div><div class='color5'></div><div class='color6'></div><div class='color7'></div><div class='color8'></div></div><div class='center'></div><div class='dot32_yellow'></div></div> </div>,1,testing.6,testing,yellow circle,small,notAB
7909,NA,,html-button-delay-response,28,362490,0.0-28.0,ylrrsv735g,no teaching,,<div  class = 'container2'> <div class='container3'><div class='palette'><div class='color1'></div><div class='color2'></div><div class='color3_red'></div><div class='color4'></div><div class='color5'></div><div class='color6'></div><div class='color7'></div><div class='color8'></div></div><div class='center'></div><div class='dot23_yellow'></div></div> </div>,1,testing.21,testing,yellow circle,small,AnotB_redneg
7666,NA,,html-button-delay-response,29,370659,0.0-29.0,ylrrsv735g,no teaching,,<div  class = 'container2'> <div class='container3'><div class='palette'><div class='color1'></div><div class='color2'></div><div class='color3'></div><div class='color4'></div><div class='color5'></div><div class='color6'></div><div class='color7_red'></div><div class='color8'></div></div><div class='center'></div><div class='dot78_green'></div></div> </div>,0,testing.25,testing,green circle,small,ABneg
4641,NA,,html-button-delay-response,30,375802,0.0-30.0,ylrrsv735g,no teaching,,<div  class = 'container2'> <div class='container3'><div class='palette'><div class='color1'></div><div class='color2_red'></div><div class='color3'></div><div class='color4'></div><div class='color5'></div><div class='color6'></div><div class='color7'></div><div class='color8'></div></div><div class='center'></div><div class='dot23'></div></div> </div>,1,testing.23,testing,black circle,small,AB
4762,NA,,html-button-delay-response,31,381066,0.0-31.0,ylrrsv735g,no teaching,,<div  class = 'container2'> <div class='container3'><div class='palette'><div class='color1'></div><div class='color2_red'></div><div class='color3'></div><div class='color4'></div><div class='color5'></div><div class='color6'></div><div class='color7'></div><div class='color8'></div></div><div class='center'></div><div class='dot56'></div></div> </div>,0,testing.11,testing,black circle,small,AnotB_grey
4947,NA,,html-button-delay-response,32,386514,0.0-32.0,ylrrsv735g,no teaching,,<div  class = 'container2'> <div class='container3'><div class='palette'><div class='color1'></div><div class='color2'></div><div class='color3'></div><div class='color4'></div><div class='color5'></div><div class='color6_red'></div><div class='color7'></div><div class='color8'></div></div><div class='center'></div><div class='dot56'></div></div> </div>,0,testing.17,testing,black circle,small,AnotB_red
4770,NA,,html-button-delay-response,33,391790,0.0-33.0,ylrrsv735g,no teaching,,<div  class = 'container2'> <div class='container3'><div class='palette'><div class='color1'></div><div class='color2'></div><div class='color3'></div><div class='color4'></div><div class='color5_red'></div><div class='color6'></div><div class='color7'></div><div class='color8'></div></div><div class='center'></div><div class='dot54_green'></div></div> </div>,1,testing.7,testing,green circle,small,notAB
8258,NA,,html-button-delay-response,34,400549,0.0-34.0,ylrrsv735g,no teaching,,<div  class = 'container2'> <div class='container3'><div class='palette'><div class='color1'></div><div class='color2'></div><div class='color3'></div><div class='color4'></div><div class='color5'></div><div class='color6'></div><div class='color7_red'></div><div class='color8'></div></div><div class='center'></div><div class='dot67_green'></div></div> </div>,0,testing.19,testing,green circle,small,AnotB_red
4871,NA,,html-button-delay-response,35,405923,0.0-35.0,ylrrsv735g,no teaching,,<div  class = 'container2'> <div class='container3'><div class='palette'><div class='color1'></div><div class='color2_red'></div><div class='color3'></div><div class='color4'></div><div class='color5'></div><div class='color6'></div><div class='color7'></div><div class='color8'></div></div><div class='center'></div><div class='dot12_yellow'></div></div> </div>,0,testing.18,testing,yellow circle,small,AnotB_red
6863,NA,,html-button-delay-response,36,413288,0.0-36.0,ylrrsv735g,no teaching,,<div  class = 'container2'> <div class='container3'><div class='palette'><div class='color1'></div><div class='color2'></div><div class='color3'></div><div class='color4_red'></div><div class='color5'></div><div class='color6'></div><div class='color7'></div><div class='color8'></div></div><div class='center'></div><div class='dot43'></div></div> </div>,0,testing.8,testing,black circle,small,notABneg
7633,NA,,html-button-delay-response,37,421423,0.0-37.0,ylrrsv735g,no teaching,,<div  class = 'container2'> <div class='container3'><div class='palette'><div class='color1'></div><div class='color2'></div><div class='color3_red'></div><div class='color4'></div><div class='color5'></div><div class='color6'></div><div class='color7'></div><div class='color8'></div></div><div class='center'></div><div class='dot32_green'></div></div> </div>,0,testing.10,testing,green circle,small,notABneg
5809,NA,,html-button-delay-response,38,427734,0.0-38.0,ylrrsv735g,no teaching,,<div  class = 'container2'> <div class='container3'><div class='palette'><div class='color1'></div><div class='color2'></div><div class='color3'></div><div class='color4'></div><div class='color5'></div><div class='color6'></div><div class='color7_red'></div><div class='color8'></div></div><div class='center'></div><div class='dot12_yellow'></div></div> </div>,1,testing.15,testing,yellow circle,small,AnotB_greyneg
25508,['wugging had to do with the colors'],self_report,survey-multi-select,39,453747,0.0-39.0,ylrrsv735g,no teaching,,,,,,,,
48293,2+ug,demo.1,survey-dropdown,40,502047,0.0-40.0,ylrrsv735g,no teaching,,,,,,,,
48293,2+ug,demo.2,survey-dropdown,40,502047,0.0-40.0,ylrrsv735g,no teaching,,,,,,,,
48293,female,demo.3,survey-dropdown,40,502047,0.0-40.0,ylrrsv735g,no teaching,,,,,,,,
48293,45-54,demo.4,survey-dropdown,40,502047,0.0-40.0,ylrrsv735g,no teaching,,,,,,,,
3966,5a6f1ccade1f390001dbd8b7,ProlificID,survey-text,0,3971,0.0-0.0,tt072q81dm,control,,,,,,,,
3374,NA,instructions,instructions,1,7346,0.0-1.0,tt072q81dm,control,"[{""page_index"":0,""viewing_time"":3373}]",,,,,,,
6516,NA,,html-button-delay-response,2,13867,0.0-2.0,tt072q81dm,control,,<div  class = 'container4'> <div class='container3'><div class='palette'><div class='color1'></div><div class='color2'></div><div class='color3'></div><div class='color4'></div><div class='color5_red'></div><div class='color6'></div><div class='color7'></div><div class='color8'></div></div><div class='center'></div><div class='dot56_green'></div></div> </div>,1,testing.1,testing,green circle,,AB
6497,NA,,html-button-delay-response,3,20873,0.0-3.0,tt072q81dm,control,,<div  class = 'container4'> <div class='container3'><div class='palette'><div class='color1_red'></div><div class='color2'></div><div class='color3'></div><div class='color4'></div><div class='color5'></div><div class='color6'></div><div class='color7'></div><div class='color8'></div></div><div class='center'></div><div class='dot21'></div></div> </div>,0,testing.2,testing,black circle,,notAnotB
6225,NA,,html-button-delay-response,4,27601,0.0-4.0,tt072q81dm,control,,<div  class = 'container4'> <div class='container5'><div class='palette'><div class='color1'></div><div class='color2'></div><div class='color3'></div><div class='color4'></div><div class='color5'></div><div class='color6_red'></div><div class='color7'></div><div class='color8'></div></div><div class='center'></div><div class='dot67_yellow'></div></div> </div>,0,testing.3,testing,yellow circle,,ABneg
7709,NA,,html-button-delay-response,5,35817,0.0-5.0,tt072q81dm,control,,<div  class = 'container4'> <div class='container5'><div class='palette'><div class='color1'></div><div class='color2'></div><div class='color3_red'></div><div class='color4'></div><div class='color5'></div><div class='color6'></div><div class='color7'></div><div class='color8'></div></div><div class='center'></div><div class='dot43_green'></div></div> </div>,1,testing.4,testing,green circle,,notAnotBneg
5605,NA,,html-button-delay-response,6,41937,0.0-6.0,tt072q81dm,control,,<div  class = 'container4'> <div class='container3'><div class='palette'><div class='color1'></div><div class='color2'></div><div class='color3'></div><div class='color4'></div><div class='color5_red'></div><div class='color6'></div><div class='color7'></div><div class='color8'></div></div><div class='center'></div><div class='dot78_green'></div></div> </div>,0,testing.13,testing,green circle,,AnotB_grey
8465,NA,,html-button-delay-response,7,50905,0.0-7.0,tt072q81dm,control,,<div  class = 'container4'> <div class='container5'><div class='palette'><div class='color1'></div><div class='color2'></div><div class='color3'></div><div class='color4_red'></div><div class='color5'></div><div class='color6'></div><div class='color7'></div><div class='color8'></div></div><div class='center'></div><div class='dot23_green'></div></div> </div>,1,testing.16,testing,green circle,,AnotB_greyneg
6007,NA,,html-button-delay-response,8,57417,0.0-8.0,tt072q81dm,control,,<div  class = 'container4'> <div class='container3'><div class='palette'><div class='color1'></div><div class='color2'></div><div class='color3'></div><div class='color4'></div><div class='color5'></div><div class='color6'></div><div class='color7_red'></div><div class='color8'></div></div><div class='center'></div><div class='dot45_yellow'></div></div> </div>,0,testing.12,testing,yellow circle,,AnotB_grey
8802,NA,,html-button-delay-response,9,66730,0.0-9.0,tt072q81dm,control,,<div  class = 'container4'> <div class='container5'><div class='palette'><div class='color1'></div><div class='color2'></div><div class='color3_red'></div><div class='color4'></div><div class='color5'></div><div class='color6'></div><div class='color7'></div><div class='color8'></div></div><div class='center'></div><div class='dot32_green'></div></div> </div>,1,testing.10,testing,green circle,,notABneg
8753,NA,,html-button-delay-response,10,75985,0.0-10.0,tt072q81dm,control,,<div  class = 'container4'> <div class='container5'><div class='palette'><div class='color1'></div><div class='color2'></div><div class='color3'></div><div class='color4'></div><div class='color5_red'></div><div class='color6'></div><div class='color7'></div><div class='color8'></div></div><div class='center'></div><div class='dot45_green'></div></div> </div>,1,testing.22,testing,green circle,,AnotB_redneg
5808,NA,,html-button-delay-response,11,82298,0.0-11.0,tt072q81dm,control,,<div  class = 'container4'> <div class='container3'><div class='palette'><div class='color1'></div><div class='color2_red'></div><div class='color3'></div><div class='color4'></div><div class='color5'></div><div class='color6'></div><div class='color7'></div><div class='color8'></div></div><div class='center'></div><div class='dot56'></div></div> </div>,0,testing.11,testing,black circle,,AnotB_grey
9105,NA,,html-button-delay-response,12,91914,0.0-12.0,tt072q81dm,control,,<div  class = 'container4'> <div class='container5'><div class='palette'><div class='color1'></div><div class='color2'></div><div class='color3'></div><div class='color4'></div><div class='color5'></div><div class='color6_red'></div><div class='color7'></div><div class='color8'></div></div><div class='center'></div><div class='dot65_yellow'></div></div> </div>,1,testing.9,testing,yellow circle,,notABneg
6412,NA,,html-button-delay-response,13,98841,0.0-13.0,tt072q81dm,control,,<div  class = 'container4'> <div class='container3'><div class='palette'><div class='color1'></div><div class='color2'></div><div class='color3'></div><div class='color4'></div><div class='color5'></div><div class='color6'></div><div class='color7_red'></div><div class='color8'></div></div><div class='center'></div><div class='dot76'></div></div> </div>,0,testing.5,testing,black circle,,notAB
7905,NA,,html-button-delay-response,14,107249,0.0-14.0,tt072q81dm,control,,<div  class = 'container4'> <div class='container5'><div class='palette'><div class='color1'></div><div class='color2'></div><div class='color3'></div><div class='color4_red'></div><div class='color5'></div><div class='color6'></div><div class='color7'></div><div class='color8'></div></div><div class='center'></div><div class='dot43'></div></div> </div>,1,testing.8,testing,black circle,,notABneg
7058,NA,,html-button-delay-response,15,114809,0.0-15.0,tt072q81dm,control,,<div  class = 'container4'> <div class='container5'><div class='palette'><div class='color1'></div><div class='color2'></div><div class='color3'></div><div class='color4'></div><div class='color5'></div><div class='color6'></div><div class='color7_red'></div><div class='color8'></div></div><div class='center'></div><div class='dot12_yellow'></div></div> </div>,1,testing.15,testing,yellow circle,,AnotB_greyneg
5242,NA,,html-button-delay-response,16,120554,0.0-16.0,tt072q81dm,control,,<div  class = 'container4'> <div class='container3'><div class='palette'><div class='color1'></div><div class='color2'></div><div class='color3'></div><div class='color4'></div><div class='color5'></div><div class='color6_red'></div><div class='color7'></div><div class='color8'></div></div><div class='center'></div><div class='dot76'></div></div> </div>,0,testing.28,testing,black circle,,notAnotB
6328,NA,,html-button-delay-response,17,127386,0.0-17.0,tt072q81dm,control,,<div  class = 'container4'> <div class='container5'><div class='palette'><div class='color1'></div><div class='color2'></div><div class='color3_red'></div><div class='color4'></div><div class='color5'></div><div class='color6'></div><div class='color7'></div><div class='color8'></div></div><div class='center'></div><div class='dot23_yellow'></div></div> </div>,0,testing.21,testing,yellow circle,,AnotB_redneg
7375,NA,,html-button-delay-response,18,135266,0.0-18.0,tt072q81dm,control,,<div  class = 'container4'> <div class='container5'><div class='palette'><div class='color1'></div><div class='color2'></div><div class='color3'></div><div class='color4_red'></div><div class='color5'></div><div class='color6'></div><div class='color7'></div><div class='color8'></div></div><div class='center'></div><div class='dot54_green'></div></div> </div>,1,testing.30,testing,green circle,,notAnotBneg
5009,NA,,html-button-delay-response,19,140778,0.0-19.0,tt072q81dm,control,,<div  class = 'container4'> <div class='container3'><div class='palette'><div class='color1'></div><div class='color2'></div><div class='color3'></div><div class='color4'></div><div class='color5_red'></div><div class='color6'></div><div class='color7'></div><div class='color8'></div></div><div class='center'></div><div class='dot54_green'></div></div> </div>,0,testing.7,testing,green circle,,notAB
5428,NA,,html-button-delay-response,20,146722,0.0-20.0,tt072q81dm,control,,<div  class = 'container4'> <div class='container3'><div class='palette'><div class='color1'></div><div class='color2'></div><div class='color3_red'></div><div class='color4'></div><div class='color5'></div><div class='color6'></div><div class='color7'></div><div class='color8'></div></div><div class='center'></div><div class='dot43_green'></div></div> </div>,0,testing.27,testing,green circle,,notAnotB
8681,NA,,html-button-delay-response,21,155905,0.0-21.0,tt072q81dm,control,,<div  class = 'container4'> <div class='container5'><div class='palette'><div class='color1'></div><div class='color2'></div><div class='color3'></div><div class='color4'></div><div class='color5'></div><div class='color6'></div><div class='color7_red'></div><div class='color8'></div></div><div class='center'></div><div class='dot67'></div></div> </div>,1,testing.20,testing,black circle,,AnotB_redneg
7130,NA,,html-button-delay-response,22,163538,0.0-22.0,tt072q81dm,control,,<div  class = 'container4'> <div class='container5'><div class='palette'><div class='color1'></div><div class='color2'></div><div class='color3'></div><div class='color4'></div><div class='color5'></div><div class='color6'></div><div class='color7_red'></div><div class='color8'></div></div><div class='center'></div><div class='dot78_green'></div></div> </div>,0,testing.25,testing,green circle,,ABneg
5520,NA,,html-button-delay-response,23,169562,0.0-23.0,tt072q81dm,control,,<div  class = 'container4'> <div class='container3'><div class='palette'><div class='color1'></div><div class='color2'></div><div class='color3'></div><div class='color4'></div><div class='color5'></div><div class='color6_red'></div><div class='color7'></div><div class='color8'></div></div><div class='center'></div><div class='dot56'></div></div> </div>,0,testing.17,testing,black circle,,AnotB_red
5395,NA,,html-button-delay-response,24,175474,0.0-24.0,tt072q81dm,control,,<div  class = 'container4'> <div class='container3'><div class='palette'><div class='color1'></div><div class='color2'></div><div class='color3'></div><div class='color4_red'></div><div class='color5'></div><div class='color6'></div><div class='color7'></div><div class='color8'></div></div><div class='center'></div><div class='dot45_yellow'></div></div> </div>,1,testing.24,testing,yellow circle,,AB
5870,NA,,html-button-delay-response,25,181857,0.0-25.0,tt072q81dm,control,,<div  class = 'container4'> <div class='container5'><div class='palette'><div class='color1'></div><div class='color2_red'></div><div class='color3'></div><div class='color4'></div><div class='color5'></div><div class='color6'></div><div class='color7'></div><div class='color8'></div></div><div class='center'></div><div class='dot32_yellow'></div></div> </div>,1,testing.29,testing,yellow circle,,notAnotBneg
5785,NA,,html-button-delay-response,26,188145,0.0-26.0,tt072q81dm,control,,<div  class = 'container4'> <div class='container3'><div class='palette'><div class='color1'></div><div class='color2_red'></div><div class='color3'></div><div class='color4'></div><div class='color5'></div><div class='color6'></div><div class='color7'></div><div class='color8'></div></div><div class='center'></div><div class='dot23'></div></div> </div>,1,testing.23,testing,black circle,,AB
6123,NA,,html-button-delay-response,27,194777,0.0-27.0,tt072q81dm,control,,<div  class = 'container4'> <div class='container3'><div class='palette'><div class='color1'></div><div class='color2'></div><div class='color3'></div><div class='color4'></div><div class='color5'></div><div class='color6'></div><div class='color7_red'></div><div class='color8'></div></div><div class='center'></div><div class='dot67_green'></div></div> </div>,0,testing.19,testing,green circle,,AnotB_red
5545,NA,,html-button-delay-response,28,200825,0.0-28.0,tt072q81dm,control,,<div  class = 'container4'> <div class='container3'><div class='palette'><div class='color1'></div><div class='color2_red'></div><div class='color3'></div><div class='color4'></div><div class='color5'></div><div class='color6'></div><div class='color7'></div><div class='color8'></div></div><div class='center'></div><div class='dot12_yellow'></div></div> </div>,0,testing.18,testing,yellow circle,,AnotB_red
7164,NA,,html-button-delay-response,29,208505,0.0-29.0,tt072q81dm,control,,<div  class = 'container4'> <div class='container5'><div class='palette'><div class='color1'></div><div class='color2'></div><div class='color3'></div><div class='color4'></div><div class='color5'></div><div class='color6_red'></div><div class='color7'></div><div class='color8'></div></div><div class='center'></div><div class='dot67'></div></div> </div>,0,testing.26,testing,black circle,,ABneg
4959,NA,,html-button-delay-response,30,213969,0.0-30.0,tt072q81dm,control,,<div  class = 'container4'> <div class='container3'><div class='palette'><div class='color1'></div><div class='color2'></div><div class='color3_red'></div><div class='color4'></div><div class='color5'></div><div class='color6'></div><div class='color7'></div><div class='color8'></div></div><div class='center'></div><div class='dot32_yellow'></div></div> </div>,0,testing.6,testing,yellow circle,,notAB
6152,NA,,html-button-delay-response,31,220625,0.0-31.0,tt072q81dm,control,,<div  class = 'container4'> <div class='container5'><div class='palette'><div class='color1'></div><div class='color2_red'></div><div class='color3'></div><div class='color4'></div><div class='color5'></div><div class='color6'></div><div class='color7'></div><div class='color8'></div></div><div class='center'></div><div class='dot67'></div></div> </div>,1,testing.14,testing,black circle,,AnotB_greyneg
67107,none,demo.1,survey-dropdown,32,288245,0.0-32.0,tt072q81dm,control,,,,,,,,
67107,none,demo.2,survey-dropdown,32,288245,0.0-32.0,tt072q81dm,control,,,,,,,,
67107,male,demo.3,survey-dropdown,32,288245,0.0-32.0,tt072q81dm,control,,,,,,,,
67107,25-34,demo.4,survey-dropdown,32,288245,0.0-32.0,tt072q81dm,control,,,,,,,,
5224,5dd03960848b0f121115d9ff,ProlificID,survey-text,0,5227,0.0-0.0,rmlj6ttcwu,control,,,,,,,,
6002,NA,instructions,instructions,1,11234,0.0-1.0,rmlj6ttcwu,control,"[{""page_index"":0,""viewing_time"":6001}]",,,,,,,
9565,NA,,html-button-delay-response,2,20804,0.0-2.0,rmlj6ttcwu,control,,<div  class = 'container4'> <div class='container3'><div class='palette'><div class='color1'></div><div class='color2'></div><div class='color3'></div><div class='color4'></div><div class='color5_red'></div><div class='color6'></div><div class='color7'></div><div class='color8'></div></div><div class='center'></div><div class='dot56_green'></div></div> </div>,1,testing.1,testing,green circle,,AB
7772,NA,,html-button-delay-response,3,29078,0.0-3.0,rmlj6ttcwu,control,,<div  class = 'container4'> <div class='container3'><div class='palette'><div class='color1_red'></div><div class='color2'></div><div class='color3'></div><div class='color4'></div><div class='color5'></div><div class='color6'></div><div class='color7'></div><div class='color8'></div></div><div class='center'></div><div class='dot21'></div></div> </div>,0,testing.2,testing,black circle,,notAnotB
6961,NA,,html-button-delay-response,4,36543,0.0-4.0,rmlj6ttcwu,control,,<div  class = 'container4'> <div class='container5'><div class='palette'><div class='color1'></div><div class='color2'></div><div class='color3'></div><div class='color4'></div><div class='color5'></div><div class='color6_red'></div><div class='color7'></div><div class='color8'></div></div><div class='center'></div><div class='dot67_yellow'></div></div> </div>,0,testing.3,testing,yellow circle,,ABneg
10348,NA,,html-button-delay-response,5,47395,0.0-5.0,rmlj6ttcwu,control,,<div  class = 'container4'> <div class='container5'><div class='palette'><div class='color1'></div><div class='color2'></div><div class='color3_red'></div><div class='color4'></div><div class='color5'></div><div class='color6'></div><div class='color7'></div><div class='color8'></div></div><div class='center'></div><div class='dot43_green'></div></div> </div>,1,testing.4,testing,green circle,,notAnotBneg
7574,NA,,html-button-delay-response,6,55472,0.0-6.0,rmlj6ttcwu,control,,<div  class = 'container4'> <div class='container3'><div class='palette'><div class='color1'></div><div class='color2'></div><div class='color3'></div><div class='color4_red'></div><div class='color5'></div><div class='color6'></div><div class='color7'></div><div class='color8'></div></div><div class='center'></div><div class='dot45_yellow'></div></div> </div>,1,testing.24,testing,yellow circle,,AB
6241,NA,,html-button-delay-response,7,62216,0.0-7.0,rmlj6ttcwu,control,,<div  class = 'container4'> <div class='container5'><div class='palette'><div class='color1'></div><div class='color2'></div><div class='color3'></div><div class='color4'></div><div class='color5'></div><div class='color6_red'></div><div class='color7'></div><div class='color8'></div></div><div class='center'></div><div class='dot65_yellow'></div></div> </div>,1,testing.9,testing,yellow circle,,notABneg
7440,NA,,html-button-delay-response,8,70159,0.0-8.0,rmlj6ttcwu,control,,<div  class = 'container4'> <div class='container5'><div class='palette'><div class='color1'></div><div class='color2'></div><div class='color3'></div><div class='color4_red'></div><div class='color5'></div><div class='color6'></div><div class='color7'></div><div class='color8'></div></div><div class='center'></div><div class='dot54_green'></div></div> </div>,1,testing.30,testing,green circle,,notAnotBneg
6050,NA,,html-button-delay-response,9,76713,0.0-9.0,rmlj6ttcwu,control,,<div  class = 'container4'> <div class='container5'><div class='palette'><div class='color1'></div><div class='color2'></div><div class='color3'></div><div class='color4_red'></div><div class='color5'></div><div class='color6'></div><div class='color7'></div><div class='color8'></div></div><div class='center'></div><div class='dot43'></div></div> </div>,1,testing.8,testing,black circle,,notABneg
6936,NA,,html-button-delay-response,10,84152,0.0-10.0,rmlj6ttcwu,control,,<div  class = 'container4'> <div class='container5'><div class='palette'><div class='color1'></div><div class='color2'></div><div class='color3'></div><div class='color4'></div><div class='color5'></div><div class='color6'></div><div class='color7_red'></div><div class='color8'></div></div><div class='center'></div><div class='dot78_green'></div></div> </div>,0,testing.25,testing,green circle,,ABneg
6500,NA,,html-button-delay-response,11,91156,0.0-11.0,rmlj6ttcwu,control,,<div  class = 'container4'> <div class='container5'><div class='palette'><div class='color1'></div><div class='color2'></div><div class='color3'></div><div class='color4'></div><div class='color5_red'></div><div class='color6'></div><div class='color7'></div><div class='color8'></div></div><div class='center'></div><div class='dot45_green'></div></div> </div>,0,testing.22,testing,green circle,,AnotB_redneg
5913,NA,,html-button-delay-response,12,97572,0.0-12.0,rmlj6ttcwu,control,,<div  class = 'container4'> <div class='container3'><div class='palette'><div class='color1'></div><div class='color2'></div><div class='color3'></div><div class='color4'></div><div class='color5'></div><div class='color6'></div><div class='color7_red'></div><div class='color8'></div></div><div class='center'></div><div class='dot67_green'></div></div> </div>,1,testing.19,testing,green circle,,AnotB_red
6074,NA,,html-button-delay-response,13,104148,0.0-13.0,rmlj6ttcwu,control,,<div  class = 'container4'> <div class='container3'><div class='palette'><div class='color1'></div><div class='color2'></div><div class='color3'></div><div class='color4'></div><div class='color5_red'></div><div class='color6'></div><div class='color7'></div><div class='color8'></div></div><div class='center'></div><div class='dot54_green'></div></div> </div>,0,testing.7,testing,green circle,,notAB
6718,NA,,html-button-delay-response,14,111370,0.0-14.0,rmlj6ttcwu,control,,<div  class = 'container4'> <div class='container3'><div class='palette'><div class='color1'></div><div class='color2_red'></div><div class='color3'></div><div class='color4'></div><div class='color5'></div><div class='color6'></div><div class='color7'></div><div class='color8'></div></div><div class='center'></div><div class='dot56'></div></div> </div>,0,testing.11,testing,black circle,,AnotB_grey
5318,NA,,html-button-delay-response,15,117192,0.0-15.0,rmlj6ttcwu,control,,<div  class = 'container4'> <div class='container3'><div class='palette'><div class='color1'></div><div class='color2'></div><div class='color3'></div><div class='color4'></div><div class='color5'></div><div class='color6'></div><div class='color7_red'></div><div class='color8'></div></div><div class='center'></div><div class='dot76'></div></div> </div>,0,testing.5,testing,black circle,,notAB
5286,NA,,html-button-delay-response,16,122980,0.0-16.0,rmlj6ttcwu,control,,<div  class = 'container4'> <div class='container3'><div class='palette'><div class='color1'></div><div class='color2'></div><div class='color3_red'></div><div class='color4'></div><div class='color5'></div><div class='color6'></div><div class='color7'></div><div class='color8'></div></div><div class='center'></div><div class='dot32_yellow'></div></div> </div>,0,testing.6,testing,yellow circle,,notAB
5323,NA,,html-button-delay-response,17,128806,0.0-17.0,rmlj6ttcwu,control,,<div  class = 'container4'> <div class='container5'><div class='palette'><div class='color1'></div><div class='color2'></div><div class='color3'></div><div class='color4'></div><div class='color5'></div><div class='color6_red'></div><div class='color7'></div><div class='color8'></div></div><div class='center'></div><div class='dot67'></div></div> </div>,0,testing.26,testing,black circle,,ABneg
7198,NA,,html-button-delay-response,18,136507,0.0-18.0,rmlj6ttcwu,control,,<div  class = 'container4'> <div class='container5'><div class='palette'><div class='color1'></div><div class='color2'></div><div class='color3'></div><div class='color4'></div><div class='color5'></div><div class='color6'></div><div class='color7_red'></div><div class='color8'></div></div><div class='center'></div><div class='dot12_yellow'></div></div> </div>,0,testing.15,testing,yellow circle,,AnotB_greyneg
9073,NA,,html-button-delay-response,19,146084,0.0-19.0,rmlj6ttcwu,control,,<div  class = 'container4'> <div class='container3'><div class='palette'><div class='color1'></div><div class='color2_red'></div><div class='color3'></div><div class='color4'></div><div class='color5'></div><div class='color6'></div><div class='color7'></div><div class='color8'></div></div><div class='center'></div><div class='dot12_yellow'></div></div> </div>,0,testing.18,testing,yellow circle,,AnotB_red
6729,NA,,html-button-delay-response,20,153316,0.0-20.0,rmlj6ttcwu,control,,<div  class = 'container4'> <div class='container3'><div class='palette'><div class='color1'></div><div class='color2_red'></div><div class='color3'></div><div class='color4'></div><div class='color5'></div><div class='color6'></div><div class='color7'></div><div class='color8'></div></div><div class='center'></div><div class='dot23'></div></div> </div>,1,testing.23,testing,black circle,,AB
5873,NA,,html-button-delay-response,21,159694,0.0-21.0,rmlj6ttcwu,control,,<div  class = 'container4'> <div class='container3'><div class='palette'><div class='color1'></div><div class='color2'></div><div class='color3'></div><div class='color4'></div><div class='color5'></div><div class='color6_red'></div><div class='color7'></div><div class='color8'></div></div><div class='center'></div><div class='dot56'></div></div> </div>,0,testing.17,testing,black circle,,AnotB_red
6075,NA,,html-button-delay-response,22,166273,0.0-22.0,rmlj6ttcwu,control,,<div  class = 'container4'> <div class='container3'><div class='palette'><div class='color1'></div><div class='color2'></div><div class='color3'></div><div class='color4'></div><div class='color5_red'></div><div class='color6'></div><div class='color7'></div><div class='color8'></div></div><div class='center'></div><div class='dot78_green'></div></div> </div>,0,testing.13,testing,green circle,,AnotB_grey
7239,NA,,html-button-delay-response,23,174015,0.0-23.0,rmlj6ttcwu,control,,<div  class = 'container4'> <div class='container5'><div class='palette'><div class='color1'></div><div class='color2'></div><div class='color3_red'></div><div class='color4'></div><div class='color5'></div><div class='color6'></div><div class='color7'></div><div class='color8'></div></div><div class='center'></div><div class='dot32_green'></div></div> </div>,1,testing.10,testing,green circle,,notABneg
6246,NA,,html-button-delay-response,24,180764,0.0-24.0,rmlj6ttcwu,control,,<div  class = 'container4'> <div class='container5'><div class='palette'><div class='color1'></div><div class='color2'></div><div class='color3_red'></div><div class='color4'></div><div class='color5'></div><div class='color6'></div><div class='color7'></div><div class='color8'></div></div><div class='center'></div><div class='dot23_yellow'></div></div> </div>,0,testing.21,testing,yellow circle,,AnotB_redneg
7113,NA,,html-button-delay-response,25,188380,0.0-25.0,rmlj6ttcwu,control,,<div  class = 'container4'> <div class='container5'><div class='palette'><div class='color1'></div><div class='color2'></div><div class='color3'></div><div class='color4'></div><div class='color5'></div><div class='color6'></div><div class='color7_red'></div><div class='color8'></div></div><div class='center'></div><div class='dot67'></div></div> </div>,0,testing.20,testing,black circle,,AnotB_redneg
5172,NA,,html-button-delay-response,26,194056,0.0-26.0,rmlj6ttcwu,control,,<div  class = 'container4'> <div class='container3'><div class='palette'><div class='color1'></div><div class='color2'></div><div class='color3'></div><div class='color4'></div><div class='color5'></div><div class='color6_red'></div><div class='color7'></div><div class='color8'></div></div><div class='center'></div><div class='dot76'></div></div> </div>,0,testing.28,testing,black circle,,notAnotB
5558,NA,,html-button-delay-response,27,200117,0.0-27.0,rmlj6ttcwu,control,,<div  class = 'container4'> <div class='container3'><div class='palette'><div class='color1'></div><div class='color2'></div><div class='color3_red'></div><div class='color4'></div><div class='color5'></div><div class='color6'></div><div class='color7'></div><div class='color8'></div></div><div class='center'></div><div class='dot43_green'></div></div> </div>,0,testing.27,testing,green circle,,notAnotB
5438,NA,,html-button-delay-response,28,206058,0.0-28.0,rmlj6ttcwu,control,,<div  class = 'container4'> <div class='container5'><div class='palette'><div class='color1'></div><div class='color2'></div><div class='color3'></div><div class='color4_red'></div><div class='color5'></div><div class='color6'></div><div class='color7'></div><div class='color8'></div></div><div class='center'></div><div class='dot23_green'></div></div> </div>,0,testing.16,testing,green circle,,AnotB_greyneg
5627,NA,,html-button-delay-response,29,212189,0.0-29.0,rmlj6ttcwu,control,,<div  class = 'container4'> <div class='container5'><div class='palette'><div class='color1'></div><div class='color2_red'></div><div class='color3'></div><div class='color4'></div><div class='color5'></div><div class='color6'></div><div class='color7'></div><div class='color8'></div></div><div class='center'></div><div class='dot32_yellow'></div></div> </div>,1,testing.29,testing,yellow circle,,notAnotBneg
5581,NA,,html-button-delay-response,30,218274,0.0-30.0,rmlj6ttcwu,control,,<div  class = 'container4'> <div class='container3'><div class='palette'><div class='color1'></div><div class='color2'></div><div class='color3'></div><div class='color4'></div><div class='color5'></div><div class='color6'></div><div class='color7_red'></div><div class='color8'></div></div><div class='center'></div><div class='dot45_yellow'></div></div> </div>,0,testing.12,testing,yellow circle,,AnotB_grey
5732,NA,,html-button-delay-response,31,224509,0.0-31.0,rmlj6ttcwu,control,,<div  class = 'container4'> <div class='container5'><div class='palette'><div class='color1'></div><div class='color2_red'></div><div class='color3'></div><div class='color4'></div><div class='color5'></div><div class='color6'></div><div class='color7'></div><div class='color8'></div></div><div class='center'></div><div class='dot67'></div></div> </div>,0,testing.14,testing,black circle,,AnotB_greyneg
35697,none,demo.1,survey-dropdown,32,260716,0.0-32.0,rmlj6ttcwu,control,,,,,,,,
35697,none,demo.2,survey-dropdown,32,260716,0.0-32.0,rmlj6ttcwu,control,,,,,,,,
35697,male,demo.3,survey-dropdown,32,260716,0.0-32.0,rmlj6ttcwu,control,,,,,,,,
35697,12-24,demo.4,survey-dropdown,32,260716,0.0-32.0,rmlj6ttcwu,control,,,,,,,,
6611,5f842c44c01dbb03bb69c57b,ProlificID,survey-text,0,6613,0.0-0.0,6eb1e1lksq,wugging=clockwise,,,,,,,,
2823,NA,instructions,instructions,1,9437,0.0-1.0,6eb1e1lksq,wugging=clockwise,"[{""page_index"":0,""viewing_time"":2822}]",,,,,,,
6783,NA,,html-button-delay-response,2,16221,0.0-2.0,6eb1e1lksq,wugging=clockwise,,<div  class = 'container'> <div class='container3'><div class='palette'><div class='color1_red'></div><div class='color2'></div><div class='color3'></div><div class='color4'></div><div class='color5'></div><div class='color6'></div><div class='color7'></div><div class='color8'></div></div><div class='center'></div><div class='dot12_green'></div></div> </div>,0,,,,,
4969,NA,,html-button-delay-response,3,21692,0.0-3.0,6eb1e1lksq,wugging=clockwise,,<div  class = 'container'> <div class='container3'><div class='palette'><div class='color1'></div><div class='color2_red'></div><div class='color3'></div><div class='color4'></div><div class='color5'></div><div class='color6'></div><div class='color7'></div><div class='color8'></div></div><div class='center'></div><div class='dot23'></div></div> </div>,0,,,,,
5218,NA,,html-button-delay-response,4,27412,0.0-4.0,6eb1e1lksq,wugging=clockwise,,<div  class = 'container'> <div class='container3'><div class='palette'><div class='color1'></div><div class='color2'></div><div class='color3_red'></div><div class='color4'></div><div class='color5'></div><div class='color6'></div><div class='color7'></div><div class='color8'></div></div><div class='center'></div><div class='dot34_yellow'></div></div> </div>,0,,,,,
4738,NA,,html-button-delay-response,5,32652,0.0-5.0,6eb1e1lksq,wugging=clockwise,,<div  class = 'container'> <div class='container3'><div class='palette'><div class='color1'></div><div class='color2'></div><div class='color3'></div><div class='color4_red'></div><div class='color5'></div><div class='color6'></div><div class='color7'></div><div class='color8'></div></div><div class='center'></div><div class='dot43_green'></div></div> </div>,0,,,,,
4618,NA,,html-button-delay-response,6,37774,0.0-6.0,6eb1e1lksq,wugging=clockwise,,<div  class = 'container'> <div class='container3'><div class='palette'><div class='color1'></div><div class='color2'></div><div class='color3'></div><div class='color4'></div><div class='color5'></div><div class='color6_red'></div><div class='color7'></div><div class='color8'></div></div><div class='center'></div><div class='dot65'></div></div> </div>,0,,,,,
4528,NA,,html-button-delay-response,7,42805,0.0-7.0,6eb1e1lksq,wugging=clockwise,,<div  class = 'container'> <div class='container3'><div class='palette'><div class='color1'></div><div class='color2'></div><div class='color3'></div><div class='color4'></div><div class='color5'></div><div class='color6'></div><div class='color7_red'></div><div class='color8'></div></div><div class='center'></div><div class='dot76_yellow'></div></div> </div>,0,,,,,
2473,NA,break,html-button-response,8,45780,0.0-8.0,6eb1e1lksq,wugging=clockwise,,"<p style='text-align:center'>Now, let's see how <b>you</b> use <i>wug</i>! You will see animations and will be asked to make a decision.</p>",0,,,,,
6806,NA,,html-button-delay-response,9,52588,0.0-9.0,6eb1e1lksq,wugging=clockwise,,<div  class = 'container2'> <div class='container3'><div class='palette'><div class='color1'></div><div class='color2'></div><div class='color3'></div><div class='color4'></div><div class='color5_red'></div><div class='color6'></div><div class='color7'></div><div class='color8'></div></div><div class='center'></div><div class='dot56_green'></div></div> </div>,1,testing.1,testing,green circle,small,AB
4713,NA,,html-button-delay-response,10,57804,0.0-10.0,6eb1e1lksq,wugging=clockwise,,<div  class = 'container2'> <div class='container3'><div class='palette'><div class='color1'></div><div class='color2'></div><div class='color3'></div><div class='color4'></div><div class='color5'></div><div class='color6_red'></div><div class='color7'></div><div class='color8'></div></div><div class='center'></div><div class='dot67_yellow'></div></div> </div>,0,testing.2,testing,yellow cirlce,small,ABneg
5209,NA,,html-button-delay-response,11,63516,0.0-11.0,6eb1e1lksq,wugging=clockwise,,<div  class = 'container2'> <div class='container3'><div class='palette'><div class='color1'></div><div class='color2'></div><div class='color3'></div><div class='color4'></div><div class='color5_red'></div><div class='color6'></div><div class='color7'></div><div class='color8'></div></div><div class='center'></div><div class='dot54_green'></div></div> </div>,0,testing.3,testing,green circle,small,notAB
5001,NA,,html-button-delay-response,12,69020,0.0-12.0,6eb1e1lksq,wugging=clockwise,,<div  class = 'container2'> <div class='container3'><div class='palette'><div class='color1'></div><div class='color2'></div><div class='color3'></div><div class='color4_red'></div><div class='color5'></div><div class='color6'></div><div class='color7'></div><div class='color8'></div></div><div class='center'></div><div class='dot43'></div></div> </div>,1,testing.4,testing,black circle,small,notABneg
7066,NA,,html-button-delay-response,13,76588,0.0-13.0,6eb1e1lksq,wugging=clockwise,,<div  class = 'container2'> <div class='container3'><div class='palette'><div class='color1'></div><div class='color2'></div><div class='color3'></div><div class='color4'></div><div class='color5'></div><div class='color6_red'></div><div class='color7'></div><div class='color8'></div></div><div class='center'></div><div class='dot65_yellow'></div></div> </div>,1,testing.7,testing,yellow circle,small,notABneg
12849,NA,,html-button-delay-response,14,89940,0.0-14.0,6eb1e1lksq,wugging=clockwise,,<div  class = 'container2'> <div class='container3'><div class='palette'><div class='color1'></div><div class='color2'></div><div class='color3'></div><div class='color4'></div><div class='color5'></div><div class='color6'></div><div class='color7_red'></div><div class='color8'></div></div><div class='center'></div><div class='dot12_yellow'></div></div> </div>,0,testing.13,testing,yellow circle,small,AnotB_greyneg
4810,NA,,html-button-delay-response,15,95251,0.0-15.0,6eb1e1lksq,wugging=clockwise,,<div  class = 'container2'> <div class='container3'><div class='palette'><div class='color1'></div><div class='color2'></div><div class='color3'></div><div class='color4'></div><div class='color5'></div><div class='color6_red'></div><div class='color7'></div><div class='color8'></div></div><div class='center'></div><div class='dot56'></div></div> </div>,1,testing.15,testing,black circle,small,AnotB_red
5762,NA,,html-button-delay-response,16,101515,0.0-16.0,6eb1e1lksq,wugging=clockwise,,<div  class = 'container2'> <div class='container3'><div class='palette'><div class='color1'></div><div class='color2'></div><div class='color3'></div><div class='color4_red'></div><div class='color5'></div><div class='color6'></div><div class='color7'></div><div class='color8'></div></div><div class='center'></div><div class='dot23_green'></div></div> </div>,0,testing.14,testing,green circle,small,AnotB_greyneg
5699,NA,,html-button-delay-response,17,107715,0.0-17.0,6eb1e1lksq,wugging=clockwise,,<div  class = 'container2'> <div class='container3'><div class='palette'><div class='color1_red'></div><div class='color2'></div><div class='color3'></div><div class='color4'></div><div class='color5'></div><div class='color6'></div><div class='color7'></div><div class='color8'></div></div><div class='center'></div><div class='dot21'></div></div> </div>,0,testing.29,testing,black circle,small,notAnotB
5289,NA,,html-button-delay-response,18,113508,0.0-18.0,6eb1e1lksq,wugging=clockwise,,<div  class = 'container2'> <div class='container3'><div class='palette'><div class='color1'></div><div class='color2'></div><div class='color3_red'></div><div class='color4'></div><div class='color5'></div><div class='color6'></div><div class='color7'></div><div class='color8'></div></div><div class='center'></div><div class='dot43_green'></div></div> </div>,0,testing.25,testing,green circle,small,notAnotB
4491,NA,,html-button-delay-response,19,118500,0.0-19.0,6eb1e1lksq,wugging=clockwise,,<div  class = 'container2'> <div class='container3'><div class='palette'><div class='color1'></div><div class='color2_red'></div><div class='color3'></div><div class='color4'></div><div class='color5'></div><div class='color6'></div><div class='color7'></div><div class='color8'></div></div><div class='center'></div><div class='dot67'></div></div> </div>,0,testing.12,testing,black circle,small,AnotB_greyneg
4889,NA,,html-button-delay-response,20,123891,0.0-20.0,6eb1e1lksq,wugging=clockwise,,<div  class = 'container2'> <div class='container3'><div class='palette'><div class='color1'></div><div class='color2'></div><div class='color3'></div><div class='color4'></div><div class='color5'></div><div class='color6'></div><div class='color7_red'></div><div class='color8'></div></div><div class='center'></div><div class='dot78_green'></div></div> </div>,0,testing.23,testing,green circle,small,ABneg
5234,NA,,html-button-delay-response,21,129627,0.0-21.0,6eb1e1lksq,wugging=clockwise,,<div  class = 'container2'> <div class='container3'><div class='palette'><div class='color1'></div><div class='color2'></div><div class='color3_red'></div><div class='color4'></div><div class='color5'></div><div class='color6'></div><div class='color7'></div><div class='color8'></div></div><div class='center'></div><div class='dot32_green'></div></div> </div>,1,testing.8,testing,green circle,small,notABneg
5243,NA,,html-button-delay-response,22,135372,0.0-22.0,6eb1e1lksq,wugging=clockwise,,<div  class = 'container2'> <div class='container3'><div class='palette'><div class='color1'></div><div class='color2_red'></div><div class='color3'></div><div class='color4'></div><div class='color5'></div><div class='color6'></div><div class='color7'></div><div class='color8'></div></div><div class='center'></div><div class='dot56'></div></div> </div>,1,testing.9,testing,black circle,small,AnotB_grey
4530,NA,,html-button-delay-response,23,140404,0.0-23.0,6eb1e1lksq,wugging=clockwise,,<div  class = 'container2'> <div class='container3'><div class='palette'><div class='color1'></div><div class='color2'></div><div class='color3_red'></div><div class='color4'></div><div class='color5'></div><div class='color6'></div><div class='color7'></div><div class='color8'></div></div><div class='center'></div><div class='dot43_green'></div></div> </div>,1,testing.30,testing,green circle,small,notAnotBneg
4849,NA,,html-button-delay-response,24,145756,0.0-24.0,6eb1e1lksq,wugging=clockwise,,<div  class = 'container2'> <div class='container3'><div class='palette'><div class='color1'></div><div class='color2'></div><div class='color3'></div><div class='color4'></div><div class='color5'></div><div class='color6'></div><div class='color7_red'></div><div class='color8'></div></div><div class='center'></div><div class='dot67_green'></div></div> </div>,1,testing.17,testing,green circle,small,AnotB_red
5770,NA,,html-button-delay-response,25,152027,0.0-25.0,6eb1e1lksq,wugging=clockwise,,<div  class = 'container2'> <div class='container3'><div class='palette'><div class='color1'></div><div class='color2'></div><div class='color3'></div><div class='color4'></div><div class='color5'></div><div class='color6'></div><div class='color7_red'></div><div class='color8'></div></div><div class='center'></div><div class='dot67'></div></div> </div>,0,testing.18,testing,black circle,small,AnotB_redneg
4590,NA,,html-button-delay-response,26,157121,0.0-26.0,6eb1e1lksq,wugging=clockwise,,<div  class = 'container2'> <div class='container3'><div class='palette'><div class='color1'></div><div class='color2'></div><div class='color3'></div><div class='color4'></div><div class='color5'></div><div class='color6_red'></div><div class='color7'></div><div class='color8'></div></div><div class='center'></div><div class='dot76'></div></div> </div>,0,testing.26,testing,black circle,small,notAnotB
4637,NA,,html-button-delay-response,27,162259,0.0-27.0,6eb1e1lksq,wugging=clockwise,,<div  class = 'container2'> <div class='container3'><div class='palette'><div class='color1'></div><div class='color2'></div><div class='color3'></div><div class='color4'></div><div class='color5'></div><div class='color6_red'></div><div class='color7'></div><div class='color8'></div></div><div class='center'></div><div class='dot67'></div></div> </div>,0,testing.24,testing,black circle,small,ABneg
5250,NA,,html-button-delay-response,28,168011,0.0-28.0,6eb1e1lksq,wugging=clockwise,,<div  class = 'container2'> <div class='container3'><div class='palette'><div class='color1'></div><div class='color2'></div><div class='color3'></div><div class='color4_red'></div><div class='color5'></div><div class='color6'></div><div class='color7'></div><div class='color8'></div></div><div class='center'></div><div class='dot54_green'></div></div> </div>,1,testing.28,testing,green circle,small,notAnotBneg
4865,NA,,html-button-delay-response,29,173379,0.0-29.0,6eb1e1lksq,wugging=clockwise,,<div  class = 'container2'> <div class='container3'><div class='palette'><div class='color1'></div><div class='color2'></div><div class='color3'></div><div class='color4'></div><div class='color5_red'></div><div class='color6'></div><div class='color7'></div><div class='color8'></div></div><div class='center'></div><div class='dot78_green'></div></div> </div>,1,testing.11,testing,green circle,small,AnotB_grey
4634,NA,,html-button-delay-response,30,178515,0.0-30.0,6eb1e1lksq,wugging=clockwise,,<div  class = 'container2'> <div class='container3'><div class='palette'><div class='color1'></div><div class='color2'></div><div class='color3'></div><div class='color4_red'></div><div class='color5'></div><div class='color6'></div><div class='color7'></div><div class='color8'></div></div><div class='center'></div><div class='dot45_yellow'></div></div> </div>,1,testing.22,testing,yellow circle,small,AB
4642,NA,,html-button-delay-response,31,183658,0.0-31.0,6eb1e1lksq,wugging=clockwise,,<div  class = 'container2'> <div class='container3'><div class='palette'><div class='color1'></div><div class='color2'></div><div class='color3_red'></div><div class='color4'></div><div class='color5'></div><div class='color6'></div><div class='color7'></div><div class='color8'></div></div><div class='center'></div><div class='dot32_yellow'></div></div> </div>,0,testing.6,testing,yellow circle,small,notAB
4643,NA,,html-button-delay-response,32,188802,0.0-32.0,6eb1e1lksq,wugging=clockwise,,<div  class = 'container2'> <div class='container3'><div class='palette'><div class='color1'></div><div class='color2'></div><div class='color3'></div><div class='color4'></div><div class='color5'></div><div class='color6'></div><div class='color7_red'></div><div class='color8'></div></div><div class='center'></div><div class='dot45_yellow'></div></div> </div>,1,testing.10,testing,yellow circle,small,AnotB_grey
5219,NA,,html-button-delay-response,33,194523,0.0-33.0,6eb1e1lksq,wugging=clockwise,,<div  class = 'container2'> <div class='container3'><div class='palette'><div class='color1'></div><div class='color2'></div><div class='color3'></div><div class='color4'></div><div class='color5'></div><div class='color6'></div><div class='color7_red'></div><div class='color8'></div></div><div class='center'></div><div class='dot76'></div></div> </div>,0,testing.5,testing,black circle,small,notAB
4791,NA,,html-button-delay-response,34,199819,0.0-34.0,6eb1e1lksq,wugging=clockwise,,<div  class = 'container2'> <div class='container3'><div class='palette'><div class='color1'></div><div class='color2_red'></div><div class='color3'></div><div class='color4'></div><div class='color5'></div><div class='color6'></div><div class='color7'></div><div class='color8'></div></div><div class='center'></div><div class='dot23'></div></div> </div>,1,testing.21,testing,black circle,small,AB
5329,NA,,html-button-delay-response,35,205650,0.0-35.0,6eb1e1lksq,wugging=clockwise,,<div  class = 'container2'> <div class='container3'><div class='palette'><div class='color1'></div><div class='color2'></div><div class='color3'></div><div class='color4'></div><div class='color5_red'></div><div class='color6'></div><div class='color7'></div><div class='color8'></div></div><div class='center'></div><div class='dot45_green'></div></div> </div>,0,testing.20,testing,green circle,small,AnotB_redneg
5154,NA,,html-button-delay-response,36,211306,0.0-36.0,6eb1e1lksq,wugging=clockwise,,<div  class = 'container2'> <div class='container3'><div class='palette'><div class='color1'></div><div class='color2_red'></div><div class='color3'></div><div class='color4'></div><div class='color5'></div><div class='color6'></div><div class='color7'></div><div class='color8'></div></div><div class='center'></div><div class='dot32_yellow'></div></div> </div>,1,testing.27,testing,yellow circle,small,notAnotBneg
5170,NA,,html-button-delay-response,37,216978,0.0-37.0,6eb1e1lksq,wugging=clockwise,,<div  class = 'container2'> <div class='container3'><div class='palette'><div class='color1'></div><div class='color2'></div><div class='color3_red'></div><div class='color4'></div><div class='color5'></div><div class='color6'></div><div class='color7'></div><div class='color8'></div></div><div class='center'></div><div class='dot23_yellow'></div></div> </div>,0,testing.19,testing,yellow circle,small,AnotB_redneg
4994,NA,,html-button-delay-response,38,222474,0.0-38.0,6eb1e1lksq,wugging=clockwise,,<div  class = 'container2'> <div class='container3'><div class='palette'><div class='color1'></div><div class='color2_red'></div><div class='color3'></div><div class='color4'></div><div class='color5'></div><div class='color6'></div><div class='color7'></div><div class='color8'></div></div><div class='center'></div><div class='dot12_yellow'></div></div> </div>,1,testing.16,testing,yellow circle,small,AnotB_red
14866,['wugging had to do with the direction of the movement/rotation direction'],self_report,survey-multi-select,39,237843,0.0-39.0,6eb1e1lksq,wugging=clockwise,,,,,,,,
24710,1g,demo.1,survey-dropdown,40,262556,0.0-40.0,6eb1e1lksq,wugging=clockwise,,,,,,,,
24710,none,demo.2,survey-dropdown,40,262556,0.0-40.0,6eb1e1lksq,wugging=clockwise,,,,,,,,
24710,female,demo.3,survey-dropdown,40,262556,0.0-40.0,6eb1e1lksq,wugging=clockwise,,,,,,,,
24710,12-24,demo.4,survey-dropdown,40,262556,0.0-40.0,6eb1e1lksq,wugging=clockwise,,,,,,,,
18016,5f626742d710062b8443238c,ProlificID,survey-text,0,18018,0.0-0.0,2ubl4thhrd,no teaching,,,,,,,,
4054,NA,instructions,instructions,1,22073,0.0-1.0,2ubl4thhrd,no teaching,"[{""page_index"":0,""viewing_time"":4053}]",,,,,,,
10779,NA,,html-button-delay-response,2,32856,0.0-2.0,2ubl4thhrd,no teaching,,<div  class = 'container'> <div class='container3'><div class='palette'><div class='color1_red'></div><div class='color2'></div><div class='color3'></div><div class='color4'></div><div class='color5'></div><div class='color6'></div><div class='color7'></div><div class='color8'></div></div><div class='center'></div><div class='dot12_green'></div></div> </div>,0,,,,,
10595,NA,,html-button-delay-response,3,43957,0.0-3.0,2ubl4thhrd,no teaching,,<div  class = 'container'> <div class='container3'><div class='palette'><div class='color1'></div><div class='color2_red'></div><div class='color3'></div><div class='color4'></div><div class='color5'></div><div class='color6'></div><div class='color7'></div><div class='color8'></div></div><div class='center'></div><div class='dot23'></div></div> </div>,0,,,,,
5039,NA,,html-button-delay-response,4,49497,0.0-4.0,2ubl4thhrd,no teaching,,<div  class = 'container'> <div class='container3'><div class='palette'><div class='color1'></div><div class='color2'></div><div class='color3_red'></div><div class='color4'></div><div class='color5'></div><div class='color6'></div><div class='color7'></div><div class='color8'></div></div><div class='center'></div><div class='dot34_yellow'></div></div> </div>,0,,,,,
4971,NA,,html-button-delay-response,5,54974,0.0-5.0,2ubl4thhrd,no teaching,,<div  class = 'container'> <div class='container3'><div class='palette'><div class='color1'></div><div class='color2'></div><div class='color3_red'></div><div class='color4'></div><div class='color5'></div><div class='color6'></div><div class='color7'></div><div class='color8'></div></div><div class='center'></div><div class='dot34_green'></div></div> </div>,0,,,,,
5587,NA,,html-button-delay-response,6,61068,0.0-6.0,2ubl4thhrd,no teaching,,<div  class = 'container'> <div class='container3'><div class='palette'><div class='color1'></div><div class='color2'></div><div class='color3'></div><div class='color4'></div><div class='color5'></div><div class='color6_red'></div><div class='color7'></div><div class='color8'></div></div><div class='center'></div><div class='dot67'></div></div> </div>,0,,,,,
5878,NA,,html-button-delay-response,7,67450,0.0-7.0,2ubl4thhrd,no teaching,,<div  class = 'container'> <div class='container3'><div class='palette'><div class='color1'></div><div class='color2'></div><div class='color3'></div><div class='color4'></div><div class='color5'></div><div class='color6'></div><div class='color7_red'></div><div class='color8'></div></div><div class='center'></div><div class='dot78_yellow'></div></div> </div>,0,,,,,
3779,NA,break,html-button-response,8,71737,0.0-8.0,2ubl4thhrd,no teaching,,"<p style='text-align:center'>Now, let's see how <b>you</b> use <i>wug</i>! You will see animations and will be asked to make a decision.</p>",0,,,,,
5310,NA,,html-button-delay-response,9,77048,0.0-9.0,2ubl4thhrd,no teaching,,<div  class = 'container2'> <div class='container3'><div class='palette'><div class='color1'></div><div class='color2'></div><div class='color3'></div><div class='color4'></div><div class='color5_red'></div><div class='color6'></div><div class='color7'></div><div class='color8'></div></div><div class='center'></div><div class='dot56_green'></div></div> </div>,1,testing.1,testing,green circle,small,AB
4688,NA,,html-button-delay-response,10,82242,0.0-10.0,2ubl4thhrd,no teaching,,<div  class = 'container2'> <div class='container3'><div class='palette'><div class='color1_red'></div><div class='color2'></div><div class='color3'></div><div class='color4'></div><div class='color5'></div><div class='color6'></div><div class='color7'></div><div class='color8'></div></div><div class='center'></div><div class='dot21'></div></div> </div>,0,testing.2,testing,black circle,small,notAnotB
5019,NA,,html-button-delay-response,11,87766,0.0-11.0,2ubl4thhrd,no teaching,,<div  class = 'container2'> <div class='container3'><div class='palette'><div class='color1'></div><div class='color2'></div><div class='color3'></div><div class='color4'></div><div class='color5'></div><div class='color6_red'></div><div class='color7'></div><div class='color8'></div></div><div class='center'></div><div class='dot67_yellow'></div></div> </div>,0,testing.3,testing,yellow circle,small,ABneg
5797,NA,,html-button-delay-response,12,94064,0.0-12.0,2ubl4thhrd,no teaching,,<div  class = 'container2'> <div class='container3'><div class='palette'><div class='color1'></div><div class='color2'></div><div class='color3_red'></div><div class='color4'></div><div class='color5'></div><div class='color6'></div><div class='color7'></div><div class='color8'></div></div><div class='center'></div><div class='dot43_green'></div></div> </div>,1,testing.4,testing,green circle,small,notAnotBneg
6733,NA,,html-button-delay-response,13,101303,0.0-13.0,2ubl4thhrd,no teaching,,<div  class = 'container2'> <div class='container3'><div class='palette'><div class='color1'></div><div class='color2'></div><div class='color3'></div><div class='color4'></div><div class='color5'></div><div class='color6_red'></div><div class='color7'></div><div class='color8'></div></div><div class='center'></div><div class='dot65_yellow'></div></div> </div>,0,testing.9,testing,yellow circle,small,notABneg
4537,NA,,html-button-delay-response,14,106345,0.0-14.0,2ubl4thhrd,no teaching,,<div  class = 'container2'> <div class='container3'><div class='palette'><div class='color1'></div><div class='color2'></div><div class='color3_red'></div><div class='color4'></div><div class='color5'></div><div class='color6'></div><div class='color7'></div><div class='color8'></div></div><div class='center'></div><div class='dot43_green'></div></div> </div>,0,testing.27,testing,green circle,small,notAnotB
4772,NA,,html-button-delay-response,15,111619,0.0-15.0,2ubl4thhrd,no teaching,,<div  class = 'container2'> <div class='container3'><div class='palette'><div class='color1'></div><div class='color2'></div><div class='color3'></div><div class='color4'></div><div class='color5'></div><div class='color6'></div><div class='color7_red'></div><div class='color8'></div></div><div class='center'></div><div class='dot67_green'></div></div> </div>,0,testing.19,testing,green circle,small,AnotB_red
5648,NA,,html-button-delay-response,16,117770,0.0-16.0,2ubl4thhrd,no teaching,,<div  class = 'container2'> <div class='container3'><div class='palette'><div class='color1'></div><div class='color2_red'></div><div class='color3'></div><div class='color4'></div><div class='color5'></div><div class='color6'></div><div class='color7'></div><div class='color8'></div></div><div class='center'></div><div class='dot32_yellow'></div></div> </div>,1,testing.29,testing,yellow circle,small,notAnotBneg
5064,NA,,html-button-delay-response,17,123338,0.0-17.0,2ubl4thhrd,no teaching,,<div  class = 'container2'> <div class='container3'><div class='palette'><div class='color1'></div><div class='color2'></div><div class='color3'></div><div class='color4'></div><div class='color5'></div><div class='color6'></div><div class='color7_red'></div><div class='color8'></div></div><div class='center'></div><div class='dot12_yellow'></div></div> </div>,1,testing.15,testing,yellow circle,small,AnotB_greyneg
4556,NA,,html-button-delay-response,18,128397,0.0-18.0,2ubl4thhrd,no teaching,,<div  class = 'container2'> <div class='container3'><div class='palette'><div class='color1'></div><div class='color2'></div><div class='color3'></div><div class='color4'></div><div class='color5'></div><div class='color6'></div><div class='color7_red'></div><div class='color8'></div></div><div class='center'></div><div class='dot78_green'></div></div> </div>,0,testing.25,testing,green circle,small,ABneg
4912,NA,,html-button-delay-response,19,133815,0.0-19.0,2ubl4thhrd,no teaching,,<div  class = 'container2'> <div class='container3'><div class='palette'><div class='color1'></div><div class='color2'></div><div class='color3_red'></div><div class='color4'></div><div class='color5'></div><div class='color6'></div><div class='color7'></div><div class='color8'></div></div><div class='center'></div><div class='dot32_yellow'></div></div> </div>,1,testing.6,testing,yellow circle,small,notAB
4721,NA,,html-button-delay-response,20,139040,0.0-20.0,2ubl4thhrd,no teaching,,<div  class = 'container2'> <div class='container3'><div class='palette'><div class='color1'></div><div class='color2_red'></div><div class='color3'></div><div class='color4'></div><div class='color5'></div><div class='color6'></div><div class='color7'></div><div class='color8'></div></div><div class='center'></div><div class='dot12_yellow'></div></div> </div>,0,testing.18,testing,yellow circle,small,AnotB_red
4412,NA,,html-button-delay-response,21,143960,0.0-21.0,2ubl4thhrd,no teaching,,<div  class = 'container2'> <div class='container3'><div class='palette'><div class='color1'></div><div class='color2'></div><div class='color3'></div><div class='color4'></div><div class='color5'></div><div class='color6_red'></div><div class='color7'></div><div class='color8'></div></div><div class='center'></div><div class='dot76'></div></div> </div>,0,testing.28,testing,black circle,small,notAnotB
6948,NA,,html-button-delay-response,22,151410,0.0-22.0,2ubl4thhrd,no teaching,,<div  class = 'container2'> <div class='container3'><div class='palette'><div class='color1'></div><div class='color2'></div><div class='color3_red'></div><div class='color4'></div><div class='color5'></div><div class='color6'></div><div class='color7'></div><div class='color8'></div></div><div class='center'></div><div class='dot32_green'></div></div> </div>,0,testing.10,testing,green circle,small,notABneg
4821,NA,,html-button-delay-response,23,156735,0.0-23.0,2ubl4thhrd,no teaching,,<div  class = 'container2'> <div class='container3'><div class='palette'><div class='color1'></div><div class='color2'></div><div class='color3'></div><div class='color4'></div><div class='color5'></div><div class='color6'></div><div class='color7_red'></div><div class='color8'></div></div><div class='center'></div><div class='dot45_yellow'></div></div> </div>,0,testing.12,testing,yellow circle,small,AnotB_grey
4434,NA,,html-button-delay-response,24,161674,0.0-24.0,2ubl4thhrd,no teaching,,<div  class = 'container2'> <div class='container3'><div class='palette'><div class='color1'></div><div class='color2_red'></div><div class='color3'></div><div class='color4'></div><div class='color5'></div><div class='color6'></div><div class='color7'></div><div class='color8'></div></div><div class='center'></div><div class='dot67'></div></div> </div>,1,testing.14,testing,black circle,small,AnotB_greyneg
4474,NA,,html-button-delay-response,25,166650,0.0-25.0,2ubl4thhrd,no teaching,,<div  class = 'container2'> <div class='container3'><div class='palette'><div class='color1'></div><div class='color2_red'></div><div class='color3'></div><div class='color4'></div><div class='color5'></div><div class='color6'></div><div class='color7'></div><div class='color8'></div></div><div class='center'></div><div class='dot23'></div></div> </div>,1,testing.23,testing,black circle,small,AB
4441,NA,,html-button-delay-response,26,171593,0.0-26.0,2ubl4thhrd,no teaching,,<div  class = 'container2'> <div class='container3'><div class='palette'><div class='color1'></div><div class='color2'></div><div class='color3'></div><div class='color4'></div><div class='color5_red'></div><div class='color6'></div><div class='color7'></div><div class='color8'></div></div><div class='center'></div><div class='dot78_green'></div></div> </div>,0,testing.13,testing,green circle,small,AnotB_grey
4416,NA,,html-button-delay-response,27,176512,0.0-27.0,2ubl4thhrd,no teaching,,<div  class = 'container2'> <div class='container3'><div class='palette'><div class='color1'></div><div class='color2'></div><div class='color3'></div><div class='color4'></div><div class='color5'></div><div class='color6'></div><div class='color7_red'></div><div class='color8'></div></div><div class='center'></div><div class='dot76'></div></div> </div>,1,testing.5,testing,black circle,small,notAB
7233,NA,,html-button-delay-response,28,184246,0.0-28.0,2ubl4thhrd,no teaching,,<div  class = 'container2'> <div class='container3'><div class='palette'><div class='color1'></div><div class='color2_red'></div><div class='color3'></div><div class='color4'></div><div class='color5'></div><div class='color6'></div><div class='color7'></div><div class='color8'></div></div><div class='center'></div><div class='dot56'></div></div> </div>,0,testing.11,testing,black circle,small,AnotB_grey
4442,NA,,html-button-delay-response,29,189189,0.0-29.0,2ubl4thhrd,no teaching,,<div  class = 'container2'> <div class='container3'><div class='palette'><div class='color1'></div><div class='color2'></div><div class='color3'></div><div class='color4_red'></div><div class='color5'></div><div class='color6'></div><div class='color7'></div><div class='color8'></div></div><div class='center'></div><div class='dot43'></div></div> </div>,0,testing.8,testing,black circle,small,notABneg
4494,NA,,html-button-delay-response,30,194187,0.0-30.0,2ubl4thhrd,no teaching,,<div  class = 'container2'> <div class='container3'><div class='palette'><div class='color1'></div><div class='color2'></div><div class='color3'></div><div class='color4_red'></div><div class='color5'></div><div class='color6'></div><div class='color7'></div><div class='color8'></div></div><div class='center'></div><div class='dot45_yellow'></div></div> </div>,1,testing.24,testing,yellow circle,small,AB
4583,NA,,html-button-delay-response,31,199272,0.0-31.0,2ubl4thhrd,no teaching,,<div  class = 'container2'> <div class='container3'><div class='palette'><div class='color1'></div><div class='color2'></div><div class='color3'></div><div class='color4'></div><div class='color5'></div><div class='color6'></div><div class='color7_red'></div><div class='color8'></div></div><div class='center'></div><div class='dot67'></div></div> </div>,1,testing.20,testing,black circle,small,AnotB_redneg
4808,NA,,html-button-delay-response,32,204586,0.0-32.0,2ubl4thhrd,no teaching,,<div  class = 'container2'> <div class='container3'><div class='palette'><div class='color1'></div><div class='color2'></div><div class='color3_red'></div><div class='color4'></div><div class='color5'></div><div class='color6'></div><div class='color7'></div><div class='color8'></div></div><div class='center'></div><div class='dot23_yellow'></div></div> </div>,1,testing.21,testing,yellow circle,small,AnotB_redneg
4516,NA,,html-button-delay-response,33,209608,0.0-33.0,2ubl4thhrd,no teaching,,<div  class = 'container2'> <div class='container3'><div class='palette'><div class='color1'></div><div class='color2'></div><div class='color3'></div><div class='color4_red'></div><div class='color5'></div><div class='color6'></div><div class='color7'></div><div class='color8'></div></div><div class='center'></div><div class='dot54_green'></div></div> </div>,1,testing.30,testing,green circle,small,notAnotBneg
4781,NA,,html-button-delay-response,34,214891,0.0-34.0,2ubl4thhrd,no teaching,,<div  class = 'container2'> <div class='container3'><div class='palette'><div class='color1'></div><div class='color2'></div><div class='color3'></div><div class='color4'></div><div class='color5'></div><div class='color6_red'></div><div class='color7'></div><div class='color8'></div></div><div class='center'></div><div class='dot67'></div></div> </div>,0,testing.26,testing,black circle,small,ABneg
4494,NA,,html-button-delay-response,35,219889,0.0-35.0,2ubl4thhrd,no teaching,,<div  class = 'container2'> <div class='container3'><div class='palette'><div class='color1'></div><div class='color2'></div><div class='color3'></div><div class='color4'></div><div class='color5_red'></div><div class='color6'></div><div class='color7'></div><div class='color8'></div></div><div class='center'></div><div class='dot54_green'></div></div> </div>,1,testing.7,testing,green circle,small,notAB
4527,NA,,html-button-delay-response,36,224918,0.0-36.0,2ubl4thhrd,no teaching,,<div  class = 'container2'> <div class='container3'><div class='palette'><div class='color1'></div><div class='color2'></div><div class='color3'></div><div class='color4'></div><div class='color5'></div><div class='color6_red'></div><div class='color7'></div><div class='color8'></div></div><div class='center'></div><div class='dot56'></div></div> </div>,0,testing.17,testing,black circle,small,AnotB_red
4495,NA,,html-button-delay-response,37,229916,0.0-37.0,2ubl4thhrd,no teaching,,<div  class = 'container2'> <div class='container3'><div class='palette'><div class='color1'></div><div class='color2'></div><div class='color3'></div><div class='color4'></div><div class='color5_red'></div><div class='color6'></div><div class='color7'></div><div class='color8'></div></div><div class='center'></div><div class='dot45_green'></div></div> </div>,1,testing.22,testing,green circle,small,AnotB_redneg
4537,NA,,html-button-delay-response,38,234955,0.0-38.0,2ubl4thhrd,no teaching,,<div  class = 'container2'> <div class='container3'><div class='palette'><div class='color1'></div><div class='color2'></div><div class='color3'></div><div class='color4_red'></div><div class='color5'></div><div class='color6'></div><div class='color7'></div><div class='color8'></div></div><div class='center'></div><div class='dot23_green'></div></div> </div>,1,testing.16,testing,green circle,small,AnotB_greyneg
20505,['wugging had to do with the colors'],self_report,survey-multi-select,39,255969,0.0-39.0,2ubl4thhrd,no teaching,,,,,,,,
33033,2+ug,demo.1,survey-dropdown,40,289007,0.0-40.0,2ubl4thhrd,no teaching,,,,,,,,
33033,none,demo.2,survey-dropdown,40,289007,0.0-40.0,2ubl4thhrd,no teaching,,,,,,,,
33033,male,demo.3,survey-dropdown,40,289007,0.0-40.0,2ubl4thhrd,no teaching,,,,,,,,
