rt,responses,questionId,trial_type,trial_index,time_elapsed,internal_node_id,subjectId,group,task,view_history,button_pressed,id,type,shape,stimulus,clicks,button_response,phrase,condition
11544,5beefdf2036772000165d529,ProlificID,survey-text,0,11545,0.0-0.0,3tcl0xljvl,canonical training,CB+likert,,,,,,,,,,
3656,NA,instructions,instructions,1,15201,0.0-1.0,3tcl0xljvl,canonical training,CB+likert,"[{""page_index"":0,""viewing_time"":3656}]",,,,,,,,,
10377,NA,,html-button-delay-response,2,25580,0.0-2.0,3tcl0xljvl,canonical training,CB+likert,,0,teaching.2,teaching,The green circle,,,,,
6366,NA,,html-button-delay-response,3,32447,0.0-3.0,3tcl0xljvl,canonical training,CB+likert,,0,teaching.1,teaching,The green circle,,,,,
5058,NA,,html-button-delay-response,4,38007,0.0-4.0,3tcl0xljvl,canonical training,CB+likert,,0,teaching.6,teaching,The green circle,,,,,
3640,NA,,html-button-delay-response,5,42150,0.0-5.0,3tcl0xljvl,canonical training,CB+likert,,0,teaching.3,teaching,The green circle,,,,,
3702,NA,,html-button-delay-response,6,46364,0.0-6.0,3tcl0xljvl,canonical training,CB+likert,,0,teaching.4,teaching,The green circle,,,,,
3910,NA,,html-button-delay-response,7,50777,0.0-7.0,3tcl0xljvl,canonical training,CB+likert,,0,teaching.5,teaching,The green circle,,,,,
9737,NA,break,html-button-response,8,61020,0.0-8.0,3tcl0xljvl,canonical training,CB+likert,,0,,,,"<p style='text-align:center'>Now, let's see how <b>you</b> use <i>wug</i>!</p> <p style='text-align:center'> We will show you two animations. However, only one of them is visible, the other animation is hidden.</p>  <p style='text-align:center'>Your task is to decide whether the sentence you will read describes the visible animation or the hidden animation. You should choose the hidden scenario if you consider the visible one inappropriate. You will then be asked how confident you were while making your choice.</p>",,,,
10692,10,,survey-likert,9,71713,0.0-9.0,3tcl0xljvl,canonical training,CB+likert,,,testing.1,testing,The green circle,,1,target,does not wug.,AB
5166,10,,survey-likert,10,77379,0.0-10.0,3tcl0xljvl,canonical training,CB+likert,,,testing.2,testing,The green circle,,1,target,wugs.,AB
9998,10,,survey-likert,11,87892,0.0-11.0,3tcl0xljvl,canonical training,CB+likert,,,testing.4,testing,The green circle,,1,CB,wugs.,notAB
5742,10,,survey-likert,12,94135,0.0-12.0,3tcl0xljvl,canonical training,CB+likert,,,testing.3,testing,The green circle,,1,target,does not wug.,notAB
5797,10,,survey-likert,13,100432,0.0-13.0,3tcl0xljvl,canonical training,CB+likert,,,testing.5,testing,Every green circle,,1,target,wugs.,all_true_universal
5430,10,,survey-likert,14,106369,0.0-14.0,3tcl0xljvl,canonical training,CB+likert,,,testing.6,testing,None of the green circles,,1,target,wug.,none_true_universal
7190,10,,survey-likert,15,114060,0.0-15.0,3tcl0xljvl,canonical training,CB+likert,,,testing.38,testing,Some of the green circles,,1,CB,wug.,some_false
7381,10,,survey-likert,16,121942,0.0-16.0,3tcl0xljvl,canonical training,CB+likert,,,testing.26,testing,None of the green circles,,2,target,wug.,none_true_existential
9411,10,,survey-likert,17,131855,0.0-17.0,3tcl0xljvl,canonical training,CB+likert,,,testing.36,testing,Some of the green circles,,1,target,wug.,some_true
5442,10,,survey-likert,18,137801,0.0-18.0,3tcl0xljvl,canonical training,CB+likert,,,testing.35,testing,Some of the green circles,,1,target,wug.,some_true
9371,10,,survey-likert,19,147673,0.0-19.0,3tcl0xljvl,canonical training,CB+likert,,,testing.31,testing,None of the green circles,,2,target,wug.,none_true_no_projection
6302,10,,survey-likert,20,154484,0.0-20.0,3tcl0xljvl,canonical training,CB+likert,,,testing.7,testing,Every green circle,,1,target,wugs.,all_true_universal
7768,10,,survey-likert,21,162761,0.0-21.0,3tcl0xljvl,canonical training,CB+likert,,,testing.21,testing,None of the green circles,,1,target,wug.,none_true_universal
4647,10,,survey-likert,22,167914,0.0-22.0,3tcl0xljvl,canonical training,CB+likert,,,testing.32,testing,None of the green circles,,1,CB,wug.,none_false
5902,10,,survey-likert,23,174318,0.0-23.0,3tcl0xljvl,canonical training,CB+likert,,,testing.13,testing,Every green circle,,1,target,wugs.,all_true_existential
5485,10,,survey-likert,24,180306,0.0-24.0,3tcl0xljvl,canonical training,CB+likert,,,testing.24,testing,None of the green circles,,1,target,wug.,none_true_existential
4502,10,,survey-likert,25,185312,0.0-25.0,3tcl0xljvl,canonical training,CB+likert,,,testing.34,testing,None of the green circles,,1,CB,wug.,none_false
5234,10,,survey-likert,26,191047,0.0-26.0,3tcl0xljvl,canonical training,CB+likert,,,testing.19,testing,Every green circle,,1,target,wugs.,all_true_no_projection
5205,10,,survey-likert,27,196754,0.0-27.0,3tcl0xljvl,canonical training,CB+likert,,,testing.8,testing,Every green circle,,1,target,wugs.,all_true_universal
5767,10,,survey-likert,28,203023,0.0-28.0,3tcl0xljvl,canonical training,CB+likert,,,testing.25,testing,None of the green circles,,1,target,wug.,none_true_existential
4738,10,,survey-likert,29,208263,0.0-29.0,3tcl0xljvl,canonical training,CB+likert,,,testing.16,testing,Every green circle,,1,target,wugs.,all_true_existential
4247,10,,survey-likert,30,213010,0.0-30.0,3tcl0xljvl,canonical training,CB+likert,,,testing.10,testing,Every green circle,,1,CB,wugs.,all_false
4440,10,,survey-likert,31,217952,0.0-31.0,3tcl0xljvl,canonical training,CB+likert,,,testing.9,testing,Every green circle,,1,target,wugs.,all_true_universal
5941,10,,survey-likert,32,224394,0.0-32.0,3tcl0xljvl,canonical training,CB+likert,,,testing.30,testing,None of the green circles,,1,target,wug.,none_true_no_projection
5244,10,,survey-likert,33,230140,0.0-33.0,3tcl0xljvl,canonical training,CB+likert,,,testing.14,testing,Every green circle,,1,target,wugs.,all_true_existential
7726,10,,survey-likert,34,238367,0.0-34.0,3tcl0xljvl,canonical training,CB+likert,,,testing.11,testing,Every green circle,,1,CB,wugs.,all_false
5446,10,,survey-likert,35,244315,0.0-35.0,3tcl0xljvl,canonical training,CB+likert,,,testing.28,testing,None of the green circles,,1,target,wug.,none_true_no_projection
5046,10,,survey-likert,36,249861,0.0-36.0,3tcl0xljvl,canonical training,CB+likert,,,testing.20,testing,Every green circle,,1,target,wugs.,all_true_no_projection
5007,10,,survey-likert,37,255369,0.0-37.0,3tcl0xljvl,canonical training,CB+likert,,,testing.15,testing,Every green circle,,1,target,wugs.,all_true_existential
5827,10,,survey-likert,38,261698,0.0-38.0,3tcl0xljvl,canonical training,CB+likert,,,testing.22,testing,None of the green circles,,1,target,wug.,none_true_universal
5239,10,,survey-likert,39,267438,0.0-39.0,3tcl0xljvl,canonical training,CB+likert,,,testing.18,testing,Every green circle,,1,target,wugs.,all_true_no_projection
4715,10,,survey-likert,40,272654,0.0-40.0,3tcl0xljvl,canonical training,CB+likert,,,testing.12,testing,Every green circle,,1,CB,wugs.,all_false
5057,10,,survey-likert,41,278215,0.0-41.0,3tcl0xljvl,canonical training,CB+likert,,,testing.23,testing,None of the green circles,,1,CB,wug.,none_true_universal
4494,10,,survey-likert,42,283211,0.0-42.0,3tcl0xljvl,canonical training,CB+likert,,,testing.17,testing,Every green circle,,1,target,wugs.,all_true_no_projection
5642,10,,survey-likert,43,289353,0.0-43.0,3tcl0xljvl,canonical training,CB+likert,,,testing.37,testing,Some of the green circles,,1,CB,wug.,some_false
5723,10,,survey-likert,44,295577,0.0-44.0,3tcl0xljvl,canonical training,CB+likert,,,testing.33,testing,None of the green circles,,1,CB,wug.,none_false
8272,10,,survey-likert,45,304353,0.0-45.0,3tcl0xljvl,canonical training,CB+likert,,,testing.27,testing,None of the green circles,,2,target,wug.,none_true_existential
5235,10,,survey-likert,46,310090,0.0-46.0,3tcl0xljvl,canonical training,CB+likert,,,testing.29,testing,None of the green circles,,1,target,wug.,none_true_no_projection
9961,10,,survey-likert,47,320562,0.0-47.0,3tcl0xljvl,canonical training,CB+likert,,,testing.40,testing,Every green circle,,1,CB,wugs.,every_weird_red
5359,10,,survey-likert,48,326433,0.0-48.0,3tcl0xljvl,canonical training,CB+likert,,,testing.42,testing,Every green circle,,1,CB,wugs.,every_weird_nored
12791,10,,survey-likert,49,339739,0.0-49.0,3tcl0xljvl,canonical training,CB+likert,,,testing.41,testing,None of the green circles,,2,CB,wug.,none_weird_nored
4339,10,,survey-likert,50,344580,0.0-50.0,3tcl0xljvl,canonical training,CB+likert,,,testing.39,testing,None of the green circles,,1,CB,wug.,none_weird_red
11993,['wugging was primarily about vertical movement'],self_report,survey-multi-select,51,357075,0.0-51.0,3tcl0xljvl,canonical training,CB+likert,,,,,,,,,,
28626,1ug,demo.1,survey-dropdown,52,385704,0.0-52.0,3tcl0xljvl,canonical training,CB+likert,,,,,,,,,,
28626,none,demo.2,survey-dropdown,52,385704,0.0-52.0,3tcl0xljvl,canonical training,CB+likert,,,,,,,,,,
28626,male,demo.3,survey-dropdown,52,385704,0.0-52.0,3tcl0xljvl,canonical training,CB+likert,,,,,,,,,,
28626,12-24,demo.4,survey-dropdown,52,385704,0.0-52.0,3tcl0xljvl,canonical training,CB+likert,,,,,,,,,,
13881,5fe8f45ec92b3680e2a0bcef,ProlificID,survey-text,0,13887,0.0-0.0,fkf1czrd3j,canonical training,CB+likert,,,,,,,,,,
14273,NA,instructions,instructions,1,28161,0.0-1.0,fkf1czrd3j,canonical training,CB+likert,"[{""page_index"":0,""viewing_time"":14272}]",,,,,,,,,
4808,NA,,html-button-delay-response,2,32971,0.0-2.0,fkf1czrd3j,canonical training,CB+likert,,0,teaching.1,teaching,The green circle,,,,,
4372,NA,,html-button-delay-response,3,37858,0.0-3.0,fkf1czrd3j,canonical training,CB+likert,,0,teaching.2,teaching,The green circle,,,,,
5829,NA,,html-button-delay-response,4,44191,0.0-4.0,fkf1czrd3j,canonical training,CB+likert,,0,teaching.3,teaching,The green circle,,,,,
4219,NA,,html-button-delay-response,5,48919,0.0-5.0,fkf1czrd3j,canonical training,CB+likert,,0,teaching.6,teaching,The green circle,,,,,
3193,NA,,html-button-delay-response,6,52620,0.0-6.0,fkf1czrd3j,canonical training,CB+likert,,0,teaching.5,teaching,The green circle,,,,,
3011,NA,,html-button-delay-response,7,56136,0.0-7.0,fkf1czrd3j,canonical training,CB+likert,,0,teaching.4,teaching,The green circle,,,,,
8794,NA,break,html-button-response,8,65435,0.0-8.0,fkf1czrd3j,canonical training,CB+likert,,0,,,,"<p style='text-align:center'>Now, let's see how <b>you</b> use <i>wug</i>!</p> <p style='text-align:center'> We will show you two animations. However, only one of them is visible, the other animation is hidden.</p>  <p style='text-align:center'>Your task is to decide whether the sentence you will read describes the visible animation or the hidden animation. You should choose the hidden scenario if you consider the visible one inappropriate. You will then be asked how confident you were while making your choice.</p>",,,,
14949,9,,survey-likert,9,80388,0.0-9.0,fkf1czrd3j,canonical training,CB+likert,,,testing.3,testing,The green circle,,1,target,does not wug.,notAB
8523,10,,survey-likert,10,89416,0.0-10.0,fkf1czrd3j,canonical training,CB+likert,,,testing.4,testing,The green circle,,1,CB,wugs.,notAB
5503,10,,survey-likert,11,95432,0.0-11.0,fkf1czrd3j,canonical training,CB+likert,,,testing.2,testing,The green circle,,1,target,wugs.,AB
7470,10,,survey-likert,12,103408,0.0-12.0,fkf1czrd3j,canonical training,CB+likert,,,testing.1,testing,The green circle,,1,CB,does not wug.,AB
7502,10,,survey-likert,13,111419,0.0-13.0,fkf1czrd3j,canonical training,CB+likert,,,testing.6,testing,None of the green circles,,1,target,wug.,none_true_universal
6943,10,,survey-likert,14,118868,0.0-14.0,fkf1czrd3j,canonical training,CB+likert,,,testing.5,testing,Every green circle,,1,target,wugs.,all_true_universal
7494,9,,survey-likert,15,126867,0.0-15.0,fkf1czrd3j,canonical training,CB+likert,,,testing.34,testing,None of the green circles,,1,CB,wug.,none_false
5294,10,,survey-likert,16,132666,0.0-16.0,fkf1czrd3j,canonical training,CB+likert,,,testing.35,testing,Some of the green circles,,1,target,wug.,some_true
8345,9,,survey-likert,17,141521,0.0-17.0,fkf1czrd3j,canonical training,CB+likert,,,testing.20,testing,Every green circle,,1,target,wugs.,all_true_no_projection
7877,8,,survey-likert,18,149910,0.0-18.0,fkf1czrd3j,canonical training,CB+likert,,,testing.16,testing,Every green circle,,1,target,wugs.,all_true_existential
4854,10,,survey-likert,19,155279,0.0-19.0,fkf1czrd3j,canonical training,CB+likert,,,testing.26,testing,None of the green circles,,1,target,wug.,none_true_existential
6334,10,,survey-likert,20,162119,0.0-20.0,fkf1czrd3j,canonical training,CB+likert,,,testing.36,testing,Some of the green circles,,1,target,wug.,some_true
6006,10,,survey-likert,21,168635,0.0-21.0,fkf1czrd3j,canonical training,CB+likert,,,testing.25,testing,None of the green circles,,1,target,wug.,none_true_existential
4910,9,,survey-likert,22,174050,0.0-22.0,fkf1czrd3j,canonical training,CB+likert,,,testing.19,testing,Every green circle,,1,target,wugs.,all_true_no_projection
6436,10,,survey-likert,23,180996,0.0-23.0,fkf1czrd3j,canonical training,CB+likert,,,testing.29,testing,None of the green circles,,1,target,wug.,none_true_no_projection
7474,10,,survey-likert,24,188983,0.0-24.0,fkf1czrd3j,canonical training,CB+likert,,,testing.30,testing,None of the green circles,,1,target,wug.,none_true_no_projection
5703,10,,survey-likert,25,195195,0.0-25.0,fkf1czrd3j,canonical training,CB+likert,,,testing.9,testing,Every green circle,,1,target,wugs.,all_true_universal
5562,10,,survey-likert,26,201273,0.0-26.0,fkf1czrd3j,canonical training,CB+likert,,,testing.22,testing,None of the green circles,,1,target,wug.,none_true_universal
6476,10,,survey-likert,27,208253,0.0-27.0,fkf1czrd3j,canonical training,CB+likert,,,testing.10,testing,Every green circle,,1,CB,wugs.,all_false
9030,10,,survey-likert,28,217795,0.0-28.0,fkf1czrd3j,canonical training,CB+likert,,,testing.28,testing,None of the green circles,,2,target,wug.,none_true_no_projection
9627,10,,survey-likert,29,227931,0.0-29.0,fkf1czrd3j,canonical training,CB+likert,,,testing.31,testing,None of the green circles,,1,target,wug.,none_true_no_projection
5937,9,,survey-likert,30,234373,0.0-30.0,fkf1czrd3j,canonical training,CB+likert,,,testing.17,testing,Every green circle,,1,target,wugs.,all_true_no_projection
5789,10,,survey-likert,31,240672,0.0-31.0,fkf1czrd3j,canonical training,CB+likert,,,testing.32,testing,None of the green circles,,1,CB,wug.,none_false
6498,8,,survey-likert,32,247681,0.0-32.0,fkf1czrd3j,canonical training,CB+likert,,,testing.14,testing,Every green circle,,1,target,wugs.,all_true_existential
5877,10,,survey-likert,33,254068,0.0-33.0,fkf1czrd3j,canonical training,CB+likert,,,testing.11,testing,Every green circle,,1,CB,wugs.,all_false
4389,9,,survey-likert,34,258964,0.0-34.0,fkf1czrd3j,canonical training,CB+likert,,,testing.13,testing,Every green circle,,1,target,wugs.,all_true_existential
5167,10,,survey-likert,35,264644,0.0-35.0,fkf1czrd3j,canonical training,CB+likert,,,testing.37,testing,Some of the green circles,,1,CB,wug.,some_false
5405,9,,survey-likert,36,270572,0.0-36.0,fkf1czrd3j,canonical training,CB+likert,,,testing.18,testing,Every green circle,,1,target,wugs.,all_true_no_projection
5494,10,,survey-likert,37,276579,0.0-37.0,fkf1czrd3j,canonical training,CB+likert,,,testing.21,testing,None of the green circles,,1,target,wug.,none_true_universal
5790,9,,survey-likert,38,282877,0.0-38.0,fkf1czrd3j,canonical training,CB+likert,,,testing.8,testing,Every green circle,,1,target,wugs.,all_true_universal
5352,9,,survey-likert,39,288734,0.0-39.0,fkf1czrd3j,canonical training,CB+likert,,,testing.15,testing,Every green circle,,1,target,wugs.,all_true_existential
5469,10,,survey-likert,40,294712,0.0-40.0,fkf1czrd3j,canonical training,CB+likert,,,testing.33,testing,None of the green circles,,1,CB,wug.,none_false
6096,10,,survey-likert,41,301313,0.0-41.0,fkf1czrd3j,canonical training,CB+likert,,,testing.23,testing,None of the green circles,,1,CB,wug.,none_true_universal
4867,10,,survey-likert,42,306689,0.0-42.0,fkf1czrd3j,canonical training,CB+likert,,,testing.12,testing,Every green circle,,1,CB,wugs.,all_false
6462,10,,survey-likert,43,313661,0.0-43.0,fkf1czrd3j,canonical training,CB+likert,,,testing.27,testing,None of the green circles,,1,target,wug.,none_true_existential
5811,10,,survey-likert,44,319983,0.0-44.0,fkf1czrd3j,canonical training,CB+likert,,,testing.24,testing,None of the green circles,,1,target,wug.,none_true_existential
6610,9,,survey-likert,45,327097,0.0-45.0,fkf1czrd3j,canonical training,CB+likert,,,testing.7,testing,Every green circle,,1,target,wugs.,all_true_universal
5242,10,,survey-likert,46,332857,0.0-46.0,fkf1czrd3j,canonical training,CB+likert,,,testing.38,testing,Some of the green circles,,1,CB,wug.,some_false
7894,10,,survey-likert,47,341261,0.0-47.0,fkf1czrd3j,canonical training,CB+likert,,,testing.39,testing,None of the green circles,,2,target,wug.,none_weird_red
7197,10,,survey-likert,48,348965,0.0-48.0,fkf1czrd3j,canonical training,CB+likert,,,testing.41,testing,None of the green circles,,1,target,wug.,none_weird_nored
6112,10,,survey-likert,49,355586,0.0-49.0,fkf1czrd3j,canonical training,CB+likert,,,testing.42,testing,Every green circle,,1,CB,wugs.,every_weird_nored
5813,10,,survey-likert,50,361908,0.0-50.0,fkf1czrd3j,canonical training,CB+likert,,,testing.40,testing,Every green circle,,1,CB,wugs.,every_weird_red
5495,['wugging was primarily about vertical movement'],self_report,survey-multi-select,51,367912,0.0-51.0,fkf1czrd3j,canonical training,CB+likert,,,,,,,,,,
15520,none,demo.1,survey-dropdown,52,383439,0.0-52.0,fkf1czrd3j,canonical training,CB+likert,,,,,,,,,,
15520,none,demo.2,survey-dropdown,52,383439,0.0-52.0,fkf1czrd3j,canonical training,CB+likert,,,,,,,,,,
15520,female,demo.3,survey-dropdown,52,383439,0.0-52.0,fkf1czrd3j,canonical training,CB+likert,,,,,,,,,,
15520,25-34,demo.4,survey-dropdown,52,383439,0.0-52.0,fkf1czrd3j,canonical training,CB+likert,,,,,,,,,,
4221,60e8a53c459492c17b3e7cd9,ProlificID,survey-text,0,4222,0.0-0.0,3k83dm5xfm,canonical training,CB+likert,,,,,,,,,,
2310,NA,instructions,instructions,1,6534,0.0-1.0,3k83dm5xfm,canonical training,CB+likert,"[{""page_index"":0,""viewing_time"":2310}]",,,,,,,,,
12855,NA,,html-button-delay-response,2,19390,0.0-2.0,3k83dm5xfm,canonical training,CB+likert,,0,teaching.1,teaching,The green circle,,,,,
6258,NA,,html-button-delay-response,3,26150,0.0-3.0,3k83dm5xfm,canonical training,CB+likert,,0,teaching.2,teaching,The green circle,,,,,
6187,NA,,html-button-delay-response,4,32838,0.0-4.0,3k83dm5xfm,canonical training,CB+likert,,0,teaching.6,teaching,The green circle,,,,,
6696,NA,,html-button-delay-response,5,40046,0.0-5.0,3k83dm5xfm,canonical training,CB+likert,,0,teaching.3,teaching,The green circle,,,,,
7465,NA,,html-button-delay-response,6,48014,0.0-6.0,3k83dm5xfm,canonical training,CB+likert,,0,teaching.5,teaching,The green circle,,,,,
4550,NA,,html-button-delay-response,7,53078,0.0-7.0,3k83dm5xfm,canonical training,CB+likert,,0,teaching.4,teaching,The green circle,,,,,
19058,NA,break,html-button-response,8,72638,0.0-8.0,3k83dm5xfm,canonical training,CB+likert,,0,,,,"<p style='text-align:center'>Now, let's see how <b>you</b> use <i>wug</i>!</p> <p style='text-align:center'> We will show you two animations. However, only one of them is visible, the other animation is hidden.</p>  <p style='text-align:center'>Your task is to decide whether the sentence you will read describes the visible animation or the hidden animation. You should choose the hidden scenario if you consider the visible one inappropriate. You will then be asked how confident you were while making your choice.</p>",,,,
16103,10,,survey-likert,9,88742,0.0-9.0,3k83dm5xfm,canonical training,CB+likert,,,testing.3,testing,The green circle,,1,target,does not wug.,notAB
13917,10,,survey-likert,10,103174,0.0-10.0,3k83dm5xfm,canonical training,CB+likert,,,testing.1,testing,The green circle,,1,CB,does not wug.,AB
12217,10,,survey-likert,11,115894,0.0-11.0,3k83dm5xfm,canonical training,CB+likert,,,testing.2,testing,The green circle,,1,target,wugs.,AB
10026,10,,survey-likert,12,126422,0.0-12.0,3k83dm5xfm,canonical training,CB+likert,,,testing.4,testing,The green circle,,1,CB,wugs.,notAB
13522,10,,survey-likert,13,140445,0.0-13.0,3k83dm5xfm,canonical training,CB+likert,,,testing.5,testing,Every green circle,,1,target,wugs.,all_true_universal
11092,10,,survey-likert,14,152054,0.0-14.0,3k83dm5xfm,canonical training,CB+likert,,,testing.6,testing,None of the green circles,,1,target,wug.,none_true_universal
9378,10,,survey-likert,15,161934,0.0-15.0,3k83dm5xfm,canonical training,CB+likert,,,testing.15,testing,Every green circle,,1,target,wugs.,all_true_existential
9401,10,,survey-likert,16,171838,0.0-16.0,3k83dm5xfm,canonical training,CB+likert,,,testing.7,testing,Every green circle,,1,target,wugs.,all_true_universal
9699,10,,survey-likert,17,182038,0.0-17.0,3k83dm5xfm,canonical training,CB+likert,,,testing.22,testing,None of the green circles,,1,target,wug.,none_true_universal
7056,10,,survey-likert,18,189597,0.0-18.0,3k83dm5xfm,canonical training,CB+likert,,,testing.35,testing,Some of the green circles,,1,target,wug.,some_true
7175,10,,survey-likert,19,197277,0.0-19.0,3k83dm5xfm,canonical training,CB+likert,,,testing.37,testing,Some of the green circles,,1,CB,wug.,some_false
10874,10,,survey-likert,20,208653,0.0-20.0,3k83dm5xfm,canonical training,CB+likert,,,testing.10,testing,Every green circle,,1,CB,wugs.,all_false
12817,10,,survey-likert,21,221973,0.0-21.0,3k83dm5xfm,canonical training,CB+likert,,,testing.13,testing,Every green circle,,2,target,wugs.,all_true_existential
9929,10,,survey-likert,22,232405,0.0-22.0,3k83dm5xfm,canonical training,CB+likert,,,testing.9,testing,Every green circle,,1,target,wugs.,all_true_universal
8451,10,,survey-likert,23,241365,0.0-23.0,3k83dm5xfm,canonical training,CB+likert,,,testing.27,testing,None of the green circles,,1,target,wug.,none_true_existential
9179,10,,survey-likert,24,251045,0.0-24.0,3k83dm5xfm,canonical training,CB+likert,,,testing.32,testing,None of the green circles,,1,CB,wug.,none_false
7746,10,,survey-likert,25,259293,0.0-25.0,3k83dm5xfm,canonical training,CB+likert,,,testing.31,testing,None of the green circles,,1,CB,wug.,none_true_no_projection
6716,10,,survey-likert,26,266510,0.0-26.0,3k83dm5xfm,canonical training,CB+likert,,,testing.16,testing,Every green circle,,1,target,wugs.,all_true_existential
7112,10,,survey-likert,27,274125,0.0-27.0,3k83dm5xfm,canonical training,CB+likert,,,testing.17,testing,Every green circle,,1,target,wugs.,all_true_no_projection
10053,10,,survey-likert,28,284694,0.0-28.0,3k83dm5xfm,canonical training,CB+likert,,,testing.36,testing,Some of the green circles,,1,target,wug.,some_true
10273,10,,survey-likert,29,295470,0.0-29.0,3k83dm5xfm,canonical training,CB+likert,,,testing.28,testing,None of the green circles,,1,target,wug.,none_true_no_projection
8682,10,,survey-likert,30,304653,0.0-30.0,3k83dm5xfm,canonical training,CB+likert,,,testing.34,testing,None of the green circles,,1,CB,wug.,none_false
8386,10,,survey-likert,31,313549,0.0-31.0,3k83dm5xfm,canonical training,CB+likert,,,testing.24,testing,None of the green circles,,1,target,wug.,none_true_existential
8021,10,,survey-likert,32,322077,0.0-32.0,3k83dm5xfm,canonical training,CB+likert,,,testing.14,testing,Every green circle,,1,target,wugs.,all_true_existential
7468,10,,survey-likert,33,330061,0.0-33.0,3k83dm5xfm,canonical training,CB+likert,,,testing.25,testing,None of the green circles,,1,target,wug.,none_true_existential
9490,10,,survey-likert,34,340054,0.0-34.0,3k83dm5xfm,canonical training,CB+likert,,,testing.19,testing,Every green circle,,1,target,wugs.,all_true_no_projection
7489,10,,survey-likert,35,348046,0.0-35.0,3k83dm5xfm,canonical training,CB+likert,,,testing.33,testing,None of the green circles,,1,CB,wug.,none_false
7233,10,,survey-likert,36,355781,0.0-36.0,3k83dm5xfm,canonical training,CB+likert,,,testing.21,testing,None of the green circles,,1,target,wug.,none_true_universal
6987,10,,survey-likert,37,363269,0.0-37.0,3k83dm5xfm,canonical training,CB+likert,,,testing.26,testing,None of the green circles,,1,target,wug.,none_true_existential
9467,10,,survey-likert,38,373238,0.0-38.0,3k83dm5xfm,canonical training,CB+likert,,,testing.30,testing,None of the green circles,,1,target,wug.,none_true_no_projection
7266,10,,survey-likert,39,381006,0.0-39.0,3k83dm5xfm,canonical training,CB+likert,,,testing.29,testing,None of the green circles,,1,target,wug.,none_true_no_projection
9097,10,,survey-likert,40,390614,0.0-40.0,3k83dm5xfm,canonical training,CB+likert,,,testing.18,testing,Every green circle,,1,target,wugs.,all_true_no_projection
5818,10,,survey-likert,41,396934,0.0-41.0,3k83dm5xfm,canonical training,CB+likert,,,testing.38,testing,Some of the green circles,,1,CB,wug.,some_false
6626,10,,survey-likert,42,404062,0.0-42.0,3k83dm5xfm,canonical training,CB+likert,,,testing.20,testing,Every green circle,,1,target,wugs.,all_true_no_projection
6416,10,,survey-likert,43,410982,0.0-43.0,3k83dm5xfm,canonical training,CB+likert,,,testing.8,testing,Every green circle,,1,target,wugs.,all_true_universal
6663,10,,survey-likert,44,418150,0.0-44.0,3k83dm5xfm,canonical training,CB+likert,,,testing.23,testing,None of the green circles,,1,CB,wug.,none_true_universal
8913,10,,survey-likert,45,427565,0.0-45.0,3k83dm5xfm,canonical training,CB+likert,,,testing.11,testing,Every green circle,,1,CB,wugs.,all_false
8265,10,,survey-likert,46,436333,0.0-46.0,3k83dm5xfm,canonical training,CB+likert,,,testing.12,testing,Every green circle,,1,CB,wugs.,all_false
7594,10,,survey-likert,47,444429,0.0-47.0,3k83dm5xfm,canonical training,CB+likert,,,testing.39,testing,None of the green circles,,1,CB,wug.,none_weird_red
10114,10,,survey-likert,48,455045,0.0-48.0,3k83dm5xfm,canonical training,CB+likert,,,testing.41,testing,None of the green circles,,1,CB,wug.,none_weird_nored
9066,10,,survey-likert,49,464613,0.0-49.0,3k83dm5xfm,canonical training,CB+likert,,,testing.42,testing,Every green circle,,1,CB,wugs.,every_weird_nored
7307,10,,survey-likert,50,472422,0.0-50.0,3k83dm5xfm,canonical training,CB+likert,,,testing.40,testing,Every green circle,,1,CB,wugs.,every_weird_red
34312,['wugging was primarily about vertical movement'],self_report,survey-multi-select,51,507238,0.0-51.0,3k83dm5xfm,canonical training,CB+likert,,,,,,,,,,
27005,1g,demo.1,survey-dropdown,52,534246,0.0-52.0,3k83dm5xfm,canonical training,CB+likert,,,,,,,,,,
27005,none,demo.2,survey-dropdown,52,534246,0.0-52.0,3k83dm5xfm,canonical training,CB+likert,,,,,,,,,,
27005,female,demo.3,survey-dropdown,52,534246,0.0-52.0,3k83dm5xfm,canonical training,CB+likert,,,,,,,,,,
27005,45-54,demo.4,survey-dropdown,52,534246,0.0-52.0,3k83dm5xfm,canonical training,CB+likert,,,,,,,,,,
4831,5ecc505f8b62d245d80365b9,ProlificID,survey-text,0,4836,0.0-0.0,adt9s07glm,canonical training,CB+likert,,,,,,,,,,
3877,NA,instructions,instructions,1,8717,0.0-1.0,adt9s07glm,canonical training,CB+likert,"[{""page_index"":0,""viewing_time"":3876}]",,,,,,,,,
9897,NA,,html-button-delay-response,2,18615,0.0-2.0,adt9s07glm,canonical training,CB+likert,,0,teaching.2,teaching,The green circle,,,,,
6160,NA,,html-button-delay-response,3,25283,0.0-3.0,adt9s07glm,canonical training,CB+likert,,0,teaching.1,teaching,The green circle,,,,,
7728,NA,,html-button-delay-response,4,33522,0.0-4.0,adt9s07glm,canonical training,CB+likert,,0,teaching.6,teaching,The green circle,,,,,
6232,NA,,html-button-delay-response,5,40261,0.0-5.0,adt9s07glm,canonical training,CB+likert,,0,teaching.4,teaching,The green circle,,,,,
6859,NA,,html-button-delay-response,6,47625,0.0-6.0,adt9s07glm,canonical training,CB+likert,,0,teaching.3,teaching,The green circle,,,,,
7698,NA,,html-button-delay-response,7,55830,0.0-7.0,adt9s07glm,canonical training,CB+likert,,0,teaching.5,teaching,The green circle,,,,,
9412,NA,break,html-button-response,8,65753,0.0-8.0,adt9s07glm,canonical training,CB+likert,,0,,,,"<p style='text-align:center'>Now, let's see how <b>you</b> use <i>wug</i>!</p> <p style='text-align:center'> We will show you two animations. However, only one of them is visible, the other animation is hidden.</p>  <p style='text-align:center'>Your task is to decide whether the sentence you will read describes the visible animation or the hidden animation. You should choose the hidden scenario if you consider the visible one inappropriate. You will then be asked how confident you were while making your choice.</p>",,,,
15461,10,,survey-likert,9,81217,0.0-9.0,adt9s07glm,canonical training,CB+likert,,,testing.3,testing,The green circle,,1,target,does not wug.,notAB
9310,10,,survey-likert,10,91041,0.0-10.0,adt9s07glm,canonical training,CB+likert,,,testing.2,testing,The green circle,,1,target,wugs.,AB
7496,10,,survey-likert,11,99051,0.0-11.0,adt9s07glm,canonical training,CB+likert,,,testing.1,testing,The green circle,,1,CB,does not wug.,AB
8939,10,,survey-likert,12,108502,0.0-12.0,adt9s07glm,canonical training,CB+likert,,,testing.4,testing,The green circle,,1,CB,wugs.,notAB
14341,9,,survey-likert,13,123352,0.0-13.0,adt9s07glm,canonical training,CB+likert,,,testing.6,testing,None of the green circles,,2,CB,wug.,none_true_universal
8598,10,,survey-likert,14,132467,0.0-14.0,adt9s07glm,canonical training,CB+likert,,,testing.5,testing,Every green circle,,1,target,wugs.,all_true_universal
16733,9,,survey-likert,15,149716,0.0-15.0,adt9s07glm,canonical training,CB+likert,,,testing.23,testing,None of the green circles,,2,CB,wug.,none_true_universal
7542,10,,survey-likert,16,157771,0.0-16.0,adt9s07glm,canonical training,CB+likert,,,testing.36,testing,Some of the green circles,,1,target,wug.,some_true
9209,8,,survey-likert,17,167494,0.0-17.0,adt9s07glm,canonical training,CB+likert,,,testing.14,testing,Every green circle,,1,target,wugs.,all_true_existential
8228,8,,survey-likert,18,176237,0.0-18.0,adt9s07glm,canonical training,CB+likert,,,testing.19,testing,Every green circle,,1,target,wugs.,all_true_no_projection
9994,7,,survey-likert,19,186743,0.0-19.0,adt9s07glm,canonical training,CB+likert,,,testing.28,testing,None of the green circles,,1,target,wug.,none_true_no_projection
9102,9,,survey-likert,20,196357,0.0-20.0,adt9s07glm,canonical training,CB+likert,,,testing.13,testing,Every green circle,,1,target,wugs.,all_true_existential
12217,5,,survey-likert,21,209092,0.0-21.0,adt9s07glm,canonical training,CB+likert,,,testing.29,testing,None of the green circles,,1,CB,wug.,none_true_no_projection
10717,10,,survey-likert,22,220318,0.0-22.0,adt9s07glm,canonical training,CB+likert,,,testing.21,testing,None of the green circles,,3,target,wug.,none_true_universal
9676,10,,survey-likert,23,230507,0.0-23.0,adt9s07glm,canonical training,CB+likert,,,testing.7,testing,Every green circle,,2,target,wugs.,all_true_universal
7896,9,,survey-likert,24,238914,0.0-24.0,adt9s07glm,canonical training,CB+likert,,,testing.17,testing,Every green circle,,1,CB,wugs.,all_true_no_projection
10216,10,,survey-likert,25,249641,0.0-25.0,adt9s07glm,canonical training,CB+likert,,,testing.37,testing,Some of the green circles,,1,CB,wug.,some_false
8560,10,,survey-likert,26,258710,0.0-26.0,adt9s07glm,canonical training,CB+likert,,,testing.34,testing,None of the green circles,,1,CB,wug.,none_false
13578,10,,survey-likert,27,272802,0.0-27.0,adt9s07glm,canonical training,CB+likert,,,testing.11,testing,Every green circle,,1,CB,wugs.,all_false
8762,10,,survey-likert,28,282076,0.0-28.0,adt9s07glm,canonical training,CB+likert,,,testing.8,testing,Every green circle,,1,target,wugs.,all_true_universal
7898,10,,survey-likert,29,290484,0.0-29.0,adt9s07glm,canonical training,CB+likert,,,testing.9,testing,Every green circle,,1,target,wugs.,all_true_universal
10793,4,,survey-likert,30,301793,0.0-30.0,adt9s07glm,canonical training,CB+likert,,,testing.30,testing,None of the green circles,,2,CB,wug.,none_true_no_projection
9839,4,,survey-likert,31,312146,0.0-31.0,adt9s07glm,canonical training,CB+likert,,,testing.26,testing,None of the green circles,,1,target,wug.,none_true_existential
10694,4,,survey-likert,32,323353,0.0-32.0,adt9s07glm,canonical training,CB+likert,,,testing.31,testing,None of the green circles,,2,CB,wug.,none_true_no_projection
7748,7,,survey-likert,33,331609,0.0-33.0,adt9s07glm,canonical training,CB+likert,,,testing.22,testing,None of the green circles,,1,target,wug.,none_true_universal
10410,10,,survey-likert,34,342527,0.0-34.0,adt9s07glm,canonical training,CB+likert,,,testing.10,testing,Every green circle,,1,CB,wugs.,all_false
9164,10,,survey-likert,35,352199,0.0-35.0,adt9s07glm,canonical training,CB+likert,,,testing.12,testing,Every green circle,,1,CB,wugs.,all_false
7688,4,,survey-likert,36,360397,0.0-36.0,adt9s07glm,canonical training,CB+likert,,,testing.24,testing,None of the green circles,,1,target,wug.,none_true_existential
9938,10,,survey-likert,37,370843,0.0-37.0,adt9s07glm,canonical training,CB+likert,,,testing.32,testing,None of the green circles,,1,CB,wug.,none_false
7408,6,,survey-likert,38,378762,0.0-38.0,adt9s07glm,canonical training,CB+likert,,,testing.25,testing,None of the green circles,,1,target,wug.,none_true_existential
23006,10,,survey-likert,39,402279,0.0-39.0,adt9s07glm,canonical training,CB+likert,,,testing.27,testing,None of the green circles,,2,target,wug.,none_true_existential
7487,10,,survey-likert,40,410280,0.0-40.0,adt9s07glm,canonical training,CB+likert,,,testing.33,testing,None of the green circles,,1,CB,wug.,none_false
6593,7,,survey-likert,41,417388,0.0-41.0,adt9s07glm,canonical training,CB+likert,,,testing.20,testing,Every green circle,,1,target,wugs.,all_true_no_projection
6883,7,,survey-likert,42,424779,0.0-42.0,adt9s07glm,canonical training,CB+likert,,,testing.18,testing,Every green circle,,1,target,wugs.,all_true_no_projection
6472,10,,survey-likert,43,431767,0.0-43.0,adt9s07glm,canonical training,CB+likert,,,testing.38,testing,Some of the green circles,,1,CB,wug.,some_false
8805,10,,survey-likert,44,441090,0.0-44.0,adt9s07glm,canonical training,CB+likert,,,testing.35,testing,Some of the green circles,,2,target,wug.,some_true
5998,7,,survey-likert,45,447597,0.0-45.0,adt9s07glm,canonical training,CB+likert,,,testing.15,testing,Every green circle,,1,target,wugs.,all_true_existential
6585,7,,survey-likert,46,454684,0.0-46.0,adt9s07glm,canonical training,CB+likert,,,testing.16,testing,Every green circle,,1,target,wugs.,all_true_existential
7290,10,,survey-likert,47,462486,0.0-47.0,adt9s07glm,canonical training,CB+likert,,,testing.42,testing,Every green circle,,1,CB,wugs.,every_weird_nored
6165,10,,survey-likert,48,469161,0.0-48.0,adt9s07glm,canonical training,CB+likert,,,testing.39,testing,None of the green circles,,1,CB,wug.,none_weird_red
6062,10,,survey-likert,49,475727,0.0-49.0,adt9s07glm,canonical training,CB+likert,,,testing.41,testing,None of the green circles,,1,CB,wug.,none_weird_nored
5367,10,,survey-likert,50,481596,0.0-50.0,adt9s07glm,canonical training,CB+likert,,,testing.40,testing,Every green circle,,1,CB,wugs.,every_weird_red
15367,"['wugging was primarily about starting on the red line', 'wugging was about the relative position of the circle and the red line']",self_report,survey-multi-select,51,497474,0.0-51.0,adt9s07glm,canonical training,CB+likert,,,,,,,,,,
23639,2+ug,demo.1,survey-dropdown,52,521118,0.0-52.0,adt9s07glm,canonical training,CB+likert,,,,,,,,,,
23639,1ug,demo.2,survey-dropdown,52,521118,0.0-52.0,adt9s07glm,canonical training,CB+likert,,,,,,,,,,
23639,female,demo.3,survey-dropdown,52,521118,0.0-52.0,adt9s07glm,canonical training,CB+likert,,,,,,,,,,
23639,12-24,demo.4,survey-dropdown,52,521118,0.0-52.0,adt9s07glm,canonical training,CB+likert,,,,,,,,,,
6181,5974db749857fb00014c4191,ProlificID,survey-text,0,6191,0.0-0.0,c5fgo88zt2,canonical training,CB+likert,,,,,,,,,,
4152,NA,instructions,instructions,1,10348,0.0-1.0,c5fgo88zt2,canonical training,CB+likert,"[{""page_index"":0,""viewing_time"":4148}]",,,,,,,,,
13200,NA,,html-button-delay-response,2,23561,0.0-2.0,c5fgo88zt2,canonical training,CB+likert,,0,teaching.1,teaching,The green circle,,,,,
5101,NA,,html-button-delay-response,3,29171,0.0-3.0,c5fgo88zt2,canonical training,CB+likert,,0,teaching.2,teaching,The green circle,,,,,
2675,NA,,html-button-delay-response,4,32354,0.0-4.0,c5fgo88zt2,canonical training,CB+likert,,0,teaching.6,teaching,The green circle,,,,,
2686,NA,,html-button-delay-response,5,35548,0.0-5.0,c5fgo88zt2,canonical training,CB+likert,,0,teaching.3,teaching,The green circle,,,,,
9496,NA,,html-button-delay-response,6,45553,0.0-6.0,c5fgo88zt2,canonical training,CB+likert,,0,teaching.4,teaching,The green circle,,,,,
33276,NA,,html-button-delay-response,7,79338,0.0-7.0,c5fgo88zt2,canonical training,CB+likert,,0,teaching.5,teaching,The green circle,,,,,
114854,NA,break,html-button-response,8,194701,0.0-8.0,c5fgo88zt2,canonical training,CB+likert,,0,,,,"<p style='text-align:center'>Now, let's see how <b>you</b> use <i>wug</i>!</p> <p style='text-align:center'> We will show you two animations. However, only one of them is visible, the other animation is hidden.</p>  <p style='text-align:center'>Your task is to decide whether the sentence you will read describes the visible animation or the hidden animation. You should choose the hidden scenario if you consider the visible one inappropriate. You will then be asked how confident you were while making your choice.</p>",,,,
49593,7,,survey-likert,9,244306,0.0-9.0,c5fgo88zt2,canonical training,CB+likert,,,testing.3,testing,The green circle,,4,CB,does not wug.,notAB
12406,9,,survey-likert,10,257228,0.0-10.0,c5fgo88zt2,canonical training,CB+likert,,,testing.2,testing,The green circle,,1,CB,wugs.,AB
6944,2,,survey-likert,11,264687,0.0-11.0,c5fgo88zt2,canonical training,CB+likert,,,testing.4,testing,The green circle,,1,target,wugs.,notAB
6531,4,,survey-likert,12,271732,0.0-12.0,c5fgo88zt2,canonical training,CB+likert,,,testing.1,testing,The green circle,,1,CB,does not wug.,AB
8024,8,,survey-likert,13,280271,0.0-13.0,c5fgo88zt2,canonical training,CB+likert,,,testing.6,testing,None of the green circles,,1,CB,wug.,none_true_universal
5621,9,,survey-likert,14,286404,0.0-14.0,c5fgo88zt2,canonical training,CB+likert,,,testing.5,testing,Every green circle,,1,CB,wugs.,all_true_universal
5376,3,,survey-likert,15,292296,0.0-15.0,c5fgo88zt2,canonical training,CB+likert,,,testing.32,testing,None of the green circles,,1,target,wug.,none_false
6826,2,,survey-likert,16,299638,0.0-16.0,c5fgo88zt2,canonical training,CB+likert,,,testing.11,testing,Every green circle,,1,target,wugs.,all_false
5885,7,,survey-likert,17,306040,0.0-17.0,c5fgo88zt2,canonical training,CB+likert,,,testing.12,testing,Every green circle,,1,CB,wugs.,all_false
5172,1,,survey-likert,18,311727,0.0-18.0,c5fgo88zt2,canonical training,CB+likert,,,testing.38,testing,Some of the green circles,,1,target,wug.,some_false
7984,2,,survey-likert,19,320226,0.0-19.0,c5fgo88zt2,canonical training,CB+likert,,,testing.30,testing,None of the green circles,,1,target,wug.,none_true_no_projection
6156,8,,survey-likert,20,326899,0.0-20.0,c5fgo88zt2,canonical training,CB+likert,,,testing.17,testing,Every green circle,,1,CB,wugs.,all_true_no_projection
4811,5,,survey-likert,21,332227,0.0-21.0,c5fgo88zt2,canonical training,CB+likert,,,testing.33,testing,None of the green circles,,1,target,wug.,none_false
4943,1,,survey-likert,22,337685,0.0-22.0,c5fgo88zt2,canonical training,CB+likert,,,testing.25,testing,None of the green circles,,1,target,wug.,none_true_existential
5666,5,,survey-likert,23,343861,0.0-23.0,c5fgo88zt2,canonical training,CB+likert,,,testing.27,testing,None of the green circles,,1,target,wug.,none_true_existential
4489,6,,survey-likert,24,348861,0.0-24.0,c5fgo88zt2,canonical training,CB+likert,,,testing.36,testing,Some of the green circles,,1,CB,wug.,some_true
5741,4,,survey-likert,25,355116,0.0-25.0,c5fgo88zt2,canonical training,CB+likert,,,testing.21,testing,None of the green circles,,1,target,wug.,none_true_universal
6811,3,,survey-likert,26,362442,0.0-26.0,c5fgo88zt2,canonical training,CB+likert,,,testing.29,testing,None of the green circles,,1,target,wug.,none_true_no_projection
6297,3,,survey-likert,27,369255,0.0-27.0,c5fgo88zt2,canonical training,CB+likert,,,testing.35,testing,Some of the green circles,,1,target,wug.,some_true
8260,7,,survey-likert,28,378032,0.0-28.0,c5fgo88zt2,canonical training,CB+likert,,,testing.22,testing,None of the green circles,,1,target,wug.,none_true_universal
4181,8,,survey-likert,29,382725,0.0-29.0,c5fgo88zt2,canonical training,CB+likert,,,testing.26,testing,None of the green circles,,1,target,wug.,none_true_existential
2357,6,,survey-likert,30,385596,0.0-30.0,c5fgo88zt2,canonical training,CB+likert,,,testing.13,testing,Every green circle,,0,CB,wugs.,all_true_existential
4154,6,,survey-likert,31,390264,0.0-31.0,c5fgo88zt2,canonical training,CB+likert,,,testing.28,testing,None of the green circles,,1,CB,wug.,none_true_no_projection
3773,5,,survey-likert,32,394552,0.0-32.0,c5fgo88zt2,canonical training,CB+likert,,,testing.8,testing,Every green circle,,1,target,wugs.,all_true_universal
4678,7,,survey-likert,33,399746,0.0-33.0,c5fgo88zt2,canonical training,CB+likert,,,testing.24,testing,None of the green circles,,1,CB,wug.,none_true_existential
5283,7,,survey-likert,34,405544,0.0-34.0,c5fgo88zt2,canonical training,CB+likert,,,testing.19,testing,Every green circle,,1,CB,wugs.,all_true_no_projection
5330,9,,survey-likert,35,411390,0.0-35.0,c5fgo88zt2,canonical training,CB+likert,,,testing.16,testing,Every green circle,,1,CB,wugs.,all_true_existential
4840,7,,survey-likert,36,416743,0.0-36.0,c5fgo88zt2,canonical training,CB+likert,,,testing.14,testing,Every green circle,,1,CB,wugs.,all_true_existential
5145,4,,survey-likert,37,422403,0.0-37.0,c5fgo88zt2,canonical training,CB+likert,,,testing.23,testing,None of the green circles,,1,target,wug.,none_true_universal
4729,2,,survey-likert,38,427648,0.0-38.0,c5fgo88zt2,canonical training,CB+likert,,,testing.31,testing,None of the green circles,,1,target,wug.,none_true_no_projection
5530,5,,survey-likert,39,433693,0.0-39.0,c5fgo88zt2,canonical training,CB+likert,,,testing.9,testing,Every green circle,,1,CB,wugs.,all_true_universal
4405,8,,survey-likert,40,438612,0.0-40.0,c5fgo88zt2,canonical training,CB+likert,,,testing.15,testing,Every green circle,,1,CB,wugs.,all_true_existential
5275,3,,survey-likert,41,444401,0.0-41.0,c5fgo88zt2,canonical training,CB+likert,,,testing.34,testing,None of the green circles,,1,target,wug.,none_false
5265,9,,survey-likert,42,450182,0.0-42.0,c5fgo88zt2,canonical training,CB+likert,,,testing.20,testing,Every green circle,,1,CB,wugs.,all_true_no_projection
4564,3,,survey-likert,43,455261,0.0-43.0,c5fgo88zt2,canonical training,CB+likert,,,testing.10,testing,Every green circle,,1,target,wugs.,all_false
6040,10,,survey-likert,44,461816,0.0-44.0,c5fgo88zt2,canonical training,CB+likert,,,testing.7,testing,Every green circle,,1,CB,wugs.,all_true_universal
5093,4,,survey-likert,45,467424,0.0-45.0,c5fgo88zt2,canonical training,CB+likert,,,testing.37,testing,Some of the green circles,,1,CB,wug.,some_false
3544,6,,survey-likert,46,471484,0.0-46.0,c5fgo88zt2,canonical training,CB+likert,,,testing.18,testing,Every green circle,,0,CB,wugs.,all_true_no_projection
5519,7,,survey-likert,47,477518,0.0-47.0,c5fgo88zt2,canonical training,CB+likert,,,testing.42,testing,Every green circle,,1,CB,wugs.,every_weird_nored
4815,3,,survey-likert,48,482849,0.0-48.0,c5fgo88zt2,canonical training,CB+likert,,,testing.41,testing,None of the green circles,,1,target,wug.,none_weird_nored
5198,8,,survey-likert,49,488560,0.0-49.0,c5fgo88zt2,canonical training,CB+likert,,,testing.40,testing,Every green circle,,1,CB,wugs.,every_weird_red
5340,9,,survey-likert,50,494414,0.0-50.0,c5fgo88zt2,canonical training,CB+likert,,,testing.39,testing,None of the green circles,,1,target,wug.,none_weird_red
14302,"['wugging was primarily about vertical movement', 'wugging was primarily about starting on the red line', 'wugging was about the relative position of the circle and the red line']",self_report,survey-multi-select,51,509240,0.0-51.0,c5fgo88zt2,canonical training,CB+likert,,,,,,,,,,
35369,1g,demo.1,survey-dropdown,52,544641,0.0-52.0,c5fgo88zt2,canonical training,CB+likert,,,,,,,,,,
35369,1g,demo.2,survey-dropdown,52,544641,0.0-52.0,c5fgo88zt2,canonical training,CB+likert,,,,,,,,,,
35369,female,demo.3,survey-dropdown,52,544641,0.0-52.0,c5fgo88zt2,canonical training,CB+likert,,,,,,,,,,
35369,25-34,demo.4,survey-dropdown,52,544641,0.0-52.0,c5fgo88zt2,canonical training,CB+likert,,,,,,,,,,
7286,5c062cef891bb4000121c91c,ProlificID,survey-text,0,7287,0.0-0.0,ns0oudpupg,canonical training,CB+likert,,,,,,,,,,
1261,NA,instructions,instructions,1,8549,0.0-1.0,ns0oudpupg,canonical training,CB+likert,"[{""page_index"":0,""viewing_time"":1260}]",,,,,,,,,
4989,NA,,html-button-delay-response,2,13540,0.0-2.0,ns0oudpupg,canonical training,CB+likert,,0,teaching.2,teaching,The green circle,,,,,
4752,NA,,html-button-delay-response,3,18793,0.0-3.0,ns0oudpupg,canonical training,CB+likert,,0,teaching.1,teaching,The green circle,,,,,
5664,NA,,html-button-delay-response,4,24960,0.0-4.0,ns0oudpupg,canonical training,CB+likert,,0,teaching.6,teaching,The green circle,,,,,
4380,NA,,html-button-delay-response,5,29842,0.0-5.0,ns0oudpupg,canonical training,CB+likert,,0,teaching.3,teaching,The green circle,,,,,
4164,NA,,html-button-delay-response,6,34508,0.0-6.0,ns0oudpupg,canonical training,CB+likert,,0,teaching.4,teaching,The green circle,,,,,
3114,NA,,html-button-delay-response,7,38124,0.0-7.0,ns0oudpupg,canonical training,CB+likert,,0,teaching.5,teaching,The green circle,,,,,
8544,NA,break,html-button-response,8,47171,0.0-8.0,ns0oudpupg,canonical training,CB+likert,,0,,,,"<p style='text-align:center'>Now, let's see how <b>you</b> use <i>wug</i>!</p> <p style='text-align:center'> We will show you two animations. However, only one of them is visible, the other animation is hidden.</p>  <p style='text-align:center'>Your task is to decide whether the sentence you will read describes the visible animation or the hidden animation. You should choose the hidden scenario if you consider the visible one inappropriate. You will then be asked how confident you were while making your choice.</p>",,,,
14187,10,,survey-likert,9,61359,0.0-9.0,ns0oudpupg,canonical training,CB+likert,,,testing.4,testing,The green circle,,1,CB,wugs.,notAB
7890,10,,survey-likert,10,69753,0.0-10.0,ns0oudpupg,canonical training,CB+likert,,,testing.2,testing,The green circle,,1,target,wugs.,AB
7873,10,,survey-likert,11,78129,0.0-11.0,ns0oudpupg,canonical training,CB+likert,,,testing.1,testing,The green circle,,1,CB,does not wug.,AB
7128,10,,survey-likert,12,85759,0.0-12.0,ns0oudpupg,canonical training,CB+likert,,,testing.3,testing,The green circle,,1,target,does not wug.,notAB
9392,10,,survey-likert,13,95654,0.0-13.0,ns0oudpupg,canonical training,CB+likert,,,testing.6,testing,None of the green circles,,1,target,wug.,none_true_universal
7941,10,,survey-likert,14,104099,0.0-14.0,ns0oudpupg,canonical training,CB+likert,,,testing.5,testing,Every green circle,,1,target,wugs.,all_true_universal
7486,5,,survey-likert,15,112088,0.0-15.0,ns0oudpupg,canonical training,CB+likert,,,testing.18,testing,Every green circle,,1,CB,wugs.,all_true_no_projection
10638,10,,survey-likert,16,123230,0.0-16.0,ns0oudpupg,canonical training,CB+likert,,,testing.32,testing,None of the green circles,,2,CB,wug.,none_false
6860,10,,survey-likert,17,130593,0.0-17.0,ns0oudpupg,canonical training,CB+likert,,,testing.38,testing,Some of the green circles,,1,CB,wug.,some_false
6294,10,,survey-likert,18,137391,0.0-18.0,ns0oudpupg,canonical training,CB+likert,,,testing.35,testing,Some of the green circles,,1,target,wug.,some_true
6431,10,,survey-likert,19,144323,0.0-19.0,ns0oudpupg,canonical training,CB+likert,,,testing.26,testing,None of the green circles,,1,CB,wug.,none_true_existential
7337,10,,survey-likert,20,152163,0.0-20.0,ns0oudpupg,canonical training,CB+likert,,,testing.23,testing,None of the green circles,,1,CB,wug.,none_true_universal
6789,10,,survey-likert,21,159455,0.0-21.0,ns0oudpupg,canonical training,CB+likert,,,testing.11,testing,Every green circle,,1,CB,wugs.,all_false
6320,10,,survey-likert,22,166277,0.0-22.0,ns0oudpupg,canonical training,CB+likert,,,testing.22,testing,None of the green circles,,1,target,wug.,none_true_universal
13000,10,,survey-likert,23,179779,0.0-23.0,ns0oudpupg,canonical training,CB+likert,,,testing.24,testing,None of the green circles,,2,CB,wug.,none_true_existential
7124,3,,survey-likert,24,187406,0.0-24.0,ns0oudpupg,canonical training,CB+likert,,,testing.16,testing,Every green circle,,1,CB,wugs.,all_true_existential
13640,2,,survey-likert,25,201548,0.0-25.0,ns0oudpupg,canonical training,CB+likert,,,testing.27,testing,None of the green circles,,2,target,wug.,none_true_existential
13348,5,,survey-likert,26,215400,0.0-26.0,ns0oudpupg,canonical training,CB+likert,,,testing.30,testing,None of the green circles,,2,target,wug.,none_true_no_projection
6622,5,,survey-likert,27,222523,0.0-27.0,ns0oudpupg,canonical training,CB+likert,,,testing.28,testing,None of the green circles,,1,target,wug.,none_true_no_projection
6656,6,,survey-likert,28,229683,0.0-28.0,ns0oudpupg,canonical training,CB+likert,,,testing.15,testing,Every green circle,,1,target,wugs.,all_true_existential
6859,5,,survey-likert,29,237044,0.0-29.0,ns0oudpupg,canonical training,CB+likert,,,testing.31,testing,None of the green circles,,1,target,wug.,none_true_no_projection
6553,10,,survey-likert,30,244100,0.0-30.0,ns0oudpupg,canonical training,CB+likert,,,testing.7,testing,Every green circle,,1,target,wugs.,all_true_universal
5844,10,,survey-likert,31,250447,0.0-31.0,ns0oudpupg,canonical training,CB+likert,,,testing.10,testing,Every green circle,,1,CB,wugs.,all_false
7499,5,,survey-likert,32,258449,0.0-32.0,ns0oudpupg,canonical training,CB+likert,,,testing.13,testing,Every green circle,,1,target,wugs.,all_true_existential
7554,10,,survey-likert,33,266506,0.0-33.0,ns0oudpupg,canonical training,CB+likert,,,testing.8,testing,Every green circle,,1,target,wugs.,all_true_universal
7686,7,,survey-likert,34,274696,0.0-34.0,ns0oudpupg,canonical training,CB+likert,,,testing.36,testing,Some of the green circles,,1,target,wug.,some_true
5797,10,,survey-likert,35,280997,0.0-35.0,ns0oudpupg,canonical training,CB+likert,,,testing.12,testing,Every green circle,,1,CB,wugs.,all_false
6565,10,,survey-likert,36,288064,0.0-36.0,ns0oudpupg,canonical training,CB+likert,,,testing.34,testing,None of the green circles,,1,CB,wug.,none_false
11290,5,,survey-likert,37,299857,0.0-37.0,ns0oudpupg,canonical training,CB+likert,,,testing.17,testing,Every green circle,,2,target,wugs.,all_true_no_projection
8893,6,,survey-likert,38,309255,0.0-38.0,ns0oudpupg,canonical training,CB+likert,,,testing.29,testing,None of the green circles,,1,target,wug.,none_true_no_projection
6763,5,,survey-likert,39,316521,0.0-39.0,ns0oudpupg,canonical training,CB+likert,,,testing.19,testing,Every green circle,,1,target,wugs.,all_true_no_projection
8987,10,,survey-likert,40,326011,0.0-40.0,ns0oudpupg,canonical training,CB+likert,,,testing.21,testing,None of the green circles,,2,target,wug.,none_true_universal
5996,5,,survey-likert,41,332510,0.0-41.0,ns0oudpupg,canonical training,CB+likert,,,testing.20,testing,Every green circle,,1,target,wugs.,all_true_no_projection
6187,5,,survey-likert,42,339199,0.0-42.0,ns0oudpupg,canonical training,CB+likert,,,testing.25,testing,None of the green circles,,1,target,wug.,none_true_existential
6034,10,,survey-likert,43,345736,0.0-43.0,ns0oudpupg,canonical training,CB+likert,,,testing.9,testing,Every green circle,,1,target,wugs.,all_true_universal
16114,10,,survey-likert,44,362352,0.0-44.0,ns0oudpupg,canonical training,CB+likert,,,testing.33,testing,None of the green circles,,1,CB,wug.,none_false
93509,5,,survey-likert,45,456363,0.0-45.0,ns0oudpupg,canonical training,CB+likert,,,testing.14,testing,Every green circle,,1,target,wugs.,all_true_existential
7755,10,,survey-likert,46,464620,0.0-46.0,ns0oudpupg,canonical training,CB+likert,,,testing.37,testing,Some of the green circles,,1,CB,wug.,some_false
15049,5,,survey-likert,47,480173,0.0-47.0,ns0oudpupg,canonical training,CB+likert,,,testing.39,testing,None of the green circles,,3,target,wug.,none_weird_red
6850,5,,survey-likert,48,487525,0.0-48.0,ns0oudpupg,canonical training,CB+likert,,,testing.41,testing,None of the green circles,,1,target,wug.,none_weird_nored
11317,9,,survey-likert,49,499345,0.0-49.0,ns0oudpupg,canonical training,CB+likert,,,testing.40,testing,Every green circle,,2,CB,wugs.,every_weird_red
6244,9,,survey-likert,50,506091,0.0-50.0,ns0oudpupg,canonical training,CB+likert,,,testing.42,testing,Every green circle,,1,CB,wugs.,every_weird_nored
9260,['wugging was primarily about vertical movement'],self_report,survey-multi-select,51,515856,0.0-51.0,ns0oudpupg,canonical training,CB+likert,,,,,,,,,,
14806,none,demo.1,survey-dropdown,52,530665,0.0-52.0,ns0oudpupg,canonical training,CB+likert,,,,,,,,,,
14806,none,demo.2,survey-dropdown,52,530665,0.0-52.0,ns0oudpupg,canonical training,CB+likert,,,,,,,,,,
14806,male,demo.3,survey-dropdown,52,530665,0.0-52.0,ns0oudpupg,canonical training,CB+likert,,,,,,,,,,
14806,45-54,demo.4,survey-dropdown,52,530665,0.0-52.0,ns0oudpupg,canonical training,CB+likert,,,,,,,,,,
12393,5eb2e570f2dbc909af1e16f7,ProlificID,survey-text,0,12394,0.0-0.0,ux6gv560fd,canonical training,CB+likert,,,,,,,,,,
5689,NA,instructions,instructions,1,18083,0.0-1.0,ux6gv560fd,canonical training,CB+likert,"[{""page_index"":0,""viewing_time"":5689}]",,,,,,,,,
15871,NA,,html-button-delay-response,2,33955,0.0-2.0,ux6gv560fd,canonical training,CB+likert,,0,teaching.1,teaching,The green circle,,,,,
7168,NA,,html-button-delay-response,3,41625,0.0-3.0,ux6gv560fd,canonical training,CB+likert,,0,teaching.2,teaching,The green circle,,,,,
7433,NA,,html-button-delay-response,4,49566,0.0-4.0,ux6gv560fd,canonical training,CB+likert,,0,teaching.5,teaching,The green circle,,,,,
5241,NA,,html-button-delay-response,5,55309,0.0-5.0,ux6gv560fd,canonical training,CB+likert,,0,teaching.6,teaching,The green circle,,,,,
6914,NA,,html-button-delay-response,6,62737,0.0-6.0,ux6gv560fd,canonical training,CB+likert,,0,teaching.4,teaching,The green circle,,,,,
6106,NA,,html-button-delay-response,7,69345,0.0-7.0,ux6gv560fd,canonical training,CB+likert,,0,teaching.3,teaching,The green circle,,,,,
12479,NA,break,html-button-response,8,82335,0.0-8.0,ux6gv560fd,canonical training,CB+likert,,0,,,,"<p style='text-align:center'>Now, let's see how <b>you</b> use <i>wug</i>!</p> <p style='text-align:center'> We will show you two animations. However, only one of them is visible, the other animation is hidden.</p>  <p style='text-align:center'>Your task is to decide whether the sentence you will read describes the visible animation or the hidden animation. You should choose the hidden scenario if you consider the visible one inappropriate. You will then be asked how confident you were while making your choice.</p>",,,,
27105,10,,survey-likert,9,109441,0.0-9.0,ux6gv560fd,canonical training,CB+likert,,,testing.3,testing,The green circle,,2,target,does not wug.,notAB
11934,10,,survey-likert,10,121877,0.0-10.0,ux6gv560fd,canonical training,CB+likert,,,testing.2,testing,The green circle,,1,target,wugs.,AB
18680,1,,survey-likert,11,141060,0.0-11.0,ux6gv560fd,canonical training,CB+likert,,,testing.4,testing,The green circle,,1,CB,wugs.,notAB
15718,1,,survey-likert,12,157279,0.0-12.0,ux6gv560fd,canonical training,CB+likert,,,testing.1,testing,The green circle,,1,CB,does not wug.,AB
11686,10,,survey-likert,13,169467,0.0-13.0,ux6gv560fd,canonical training,CB+likert,,,testing.6,testing,None of the green circles,,1,target,wug.,none_true_universal
11314,10,,survey-likert,14,181285,0.0-14.0,ux6gv560fd,canonical training,CB+likert,,,testing.5,testing,Every green circle,,1,target,wugs.,all_true_universal
10667,10,,survey-likert,15,192453,0.0-15.0,ux6gv560fd,canonical training,CB+likert,,,testing.9,testing,Every green circle,,1,target,wugs.,all_true_universal
17757,3,,survey-likert,16,210713,0.0-16.0,ux6gv560fd,canonical training,CB+likert,,,testing.24,testing,None of the green circles,,2,target,wug.,none_true_existential
10274,10,,survey-likert,17,221489,0.0-17.0,ux6gv560fd,canonical training,CB+likert,,,testing.13,testing,Every green circle,,1,target,wugs.,all_true_existential
10591,1,,survey-likert,18,232581,0.0-18.0,ux6gv560fd,canonical training,CB+likert,,,testing.34,testing,None of the green circles,,1,CB,wug.,none_false
11020,1,,survey-likert,19,244103,0.0-19.0,ux6gv560fd,canonical training,CB+likert,,,testing.33,testing,None of the green circles,,1,CB,wug.,none_false
8375,10,,survey-likert,20,252981,0.0-20.0,ux6gv560fd,canonical training,CB+likert,,,testing.15,testing,Every green circle,,1,target,wugs.,all_true_existential
9239,1,,survey-likert,21,262723,0.0-21.0,ux6gv560fd,canonical training,CB+likert,,,testing.10,testing,Every green circle,,1,CB,wugs.,all_false
10666,10,,survey-likert,22,273891,0.0-22.0,ux6gv560fd,canonical training,CB+likert,,,testing.19,testing,Every green circle,,1,target,wugs.,all_true_no_projection
9063,10,,survey-likert,23,283457,0.0-23.0,ux6gv560fd,canonical training,CB+likert,,,testing.16,testing,Every green circle,,1,target,wugs.,all_true_existential
9849,10,,survey-likert,24,293809,0.0-24.0,ux6gv560fd,canonical training,CB+likert,,,testing.30,testing,None of the green circles,,1,target,wug.,none_true_no_projection
8872,10,,survey-likert,25,303183,0.0-25.0,ux6gv560fd,canonical training,CB+likert,,,testing.36,testing,Some of the green circles,,1,target,wug.,some_true
9471,1,,survey-likert,26,313157,0.0-26.0,ux6gv560fd,canonical training,CB+likert,,,testing.37,testing,Some of the green circles,,1,CB,wug.,some_false
14577,10,,survey-likert,27,328237,0.0-27.0,ux6gv560fd,canonical training,CB+likert,,,testing.25,testing,None of the green circles,,1,target,wug.,none_true_existential
8391,10,,survey-likert,28,337131,0.0-28.0,ux6gv560fd,canonical training,CB+likert,,,testing.28,testing,None of the green circles,,1,target,wug.,none_true_no_projection
8094,1,,survey-likert,29,345727,0.0-29.0,ux6gv560fd,canonical training,CB+likert,,,testing.11,testing,Every green circle,,1,CB,wugs.,all_false
9242,10,,survey-likert,30,355471,0.0-30.0,ux6gv560fd,canonical training,CB+likert,,,testing.7,testing,Every green circle,,1,target,wugs.,all_true_universal
11581,10,,survey-likert,31,367554,0.0-31.0,ux6gv560fd,canonical training,CB+likert,,,testing.29,testing,None of the green circles,,1,target,wug.,none_true_no_projection
11636,10,,survey-likert,32,379692,0.0-32.0,ux6gv560fd,canonical training,CB+likert,,,testing.27,testing,None of the green circles,,1,target,wug.,none_true_existential
10723,10,,survey-likert,33,390919,0.0-33.0,ux6gv560fd,canonical training,CB+likert,,,testing.22,testing,None of the green circles,,1,target,wug.,none_true_universal
10323,10,,survey-likert,34,401744,0.0-34.0,ux6gv560fd,canonical training,CB+likert,,,testing.31,testing,None of the green circles,,1,target,wug.,none_true_no_projection
8453,10,,survey-likert,35,410700,0.0-35.0,ux6gv560fd,canonical training,CB+likert,,,testing.14,testing,Every green circle,,1,target,wugs.,all_true_existential
10629,10,,survey-likert,36,421833,0.0-36.0,ux6gv560fd,canonical training,CB+likert,,,testing.8,testing,Every green circle,,1,target,wugs.,all_true_universal
11371,10,,survey-likert,37,433706,0.0-37.0,ux6gv560fd,canonical training,CB+likert,,,testing.26,testing,None of the green circles,,1,target,wug.,none_true_existential
13008,10,,survey-likert,38,447216,0.0-38.0,ux6gv560fd,canonical training,CB+likert,,,testing.20,testing,Every green circle,,1,target,wugs.,all_true_no_projection
10540,10,,survey-likert,39,458258,0.0-39.0,ux6gv560fd,canonical training,CB+likert,,,testing.18,testing,Every green circle,,1,target,wugs.,all_true_no_projection
11039,1,,survey-likert,40,469801,0.0-40.0,ux6gv560fd,canonical training,CB+likert,,,testing.32,testing,None of the green circles,,1,CB,wug.,none_false
11691,1,,survey-likert,41,482002,0.0-41.0,ux6gv560fd,canonical training,CB+likert,,,testing.23,testing,None of the green circles,,1,CB,wug.,none_true_universal
14291,1,,survey-likert,42,496797,0.0-42.0,ux6gv560fd,canonical training,CB+likert,,,testing.38,testing,Some of the green circles,,1,CB,wug.,some_false
9160,1,,survey-likert,43,506459,0.0-43.0,ux6gv560fd,canonical training,CB+likert,,,testing.12,testing,Every green circle,,1,CB,wugs.,all_false
10019,10,,survey-likert,44,516981,0.0-44.0,ux6gv560fd,canonical training,CB+likert,,,testing.17,testing,Every green circle,,1,target,wugs.,all_true_no_projection
10042,10,,survey-likert,45,527524,0.0-45.0,ux6gv560fd,canonical training,CB+likert,,,testing.35,testing,Some of the green circles,,1,target,wug.,some_true
10638,10,,survey-likert,46,538665,0.0-46.0,ux6gv560fd,canonical training,CB+likert,,,testing.21,testing,None of the green circles,,1,target,wug.,none_true_universal
14361,10,,survey-likert,47,553528,0.0-47.0,ux6gv560fd,canonical training,CB+likert,,,testing.39,testing,None of the green circles,,1,target,wug.,none_weird_red
10460,1,,survey-likert,48,564490,0.0-48.0,ux6gv560fd,canonical training,CB+likert,,,testing.42,testing,Every green circle,,1,CB,wugs.,every_weird_nored
12989,1,,survey-likert,49,577982,0.0-49.0,ux6gv560fd,canonical training,CB+likert,,,testing.40,testing,Every green circle,,1,CB,wugs.,every_weird_red
9184,10,,survey-likert,50,587670,0.0-50.0,ux6gv560fd,canonical training,CB+likert,,,testing.41,testing,None of the green circles,,1,target,wug.,none_weird_nored
9632,['wugging was primarily about vertical movement'],self_report,survey-multi-select,51,597812,0.0-51.0,ux6gv560fd,canonical training,CB+likert,,,,,,,,,,
33329,none,demo.1,survey-dropdown,52,631144,0.0-52.0,ux6gv560fd,canonical training,CB+likert,,,,,,,,,,
33329,none,demo.2,survey-dropdown,52,631144,0.0-52.0,ux6gv560fd,canonical training,CB+likert,,,,,,,,,,
33329,female,demo.3,survey-dropdown,52,631144,0.0-52.0,ux6gv560fd,canonical training,CB+likert,,,,,,,,,,
33329,55-64,demo.4,survey-dropdown,52,631144,0.0-52.0,ux6gv560fd,canonical training,CB+likert,,,,,,,,,,
4244,5f2d51163ed6a206cb739054,ProlificID,survey-text,0,4246,0.0-0.0,zz4wr6qrjz,canonical training,CB+likert,,,,,,,,,,
4933,NA,instructions,instructions,1,9180,0.0-1.0,zz4wr6qrjz,canonical training,CB+likert,"[{""page_index"":0,""viewing_time"":4932}]",,,,,,,,,
11395,NA,,html-button-delay-response,2,20577,0.0-2.0,zz4wr6qrjz,canonical training,CB+likert,,0,teaching.2,teaching,The green circle,,,,,
8951,NA,,html-button-delay-response,3,30040,0.0-3.0,zz4wr6qrjz,canonical training,CB+likert,,0,teaching.1,teaching,The green circle,,,,,
9317,NA,,html-button-delay-response,4,39861,0.0-4.0,zz4wr6qrjz,canonical training,CB+likert,,0,teaching.4,teaching,The green circle,,,,,
4911,NA,,html-button-delay-response,5,45280,0.0-5.0,zz4wr6qrjz,canonical training,CB+likert,,0,teaching.5,teaching,The green circle,,,,,
9168,NA,,html-button-delay-response,6,54963,0.0-6.0,zz4wr6qrjz,canonical training,CB+likert,,0,teaching.6,teaching,The green circle,,,,,
7308,NA,,html-button-delay-response,7,62779,0.0-7.0,zz4wr6qrjz,canonical training,CB+likert,,0,teaching.3,teaching,The green circle,,,,,
29548,NA,break,html-button-response,8,92841,0.0-8.0,zz4wr6qrjz,canonical training,CB+likert,,0,,,,"<p style='text-align:center'>Now, let's see how <b>you</b> use <i>wug</i>!</p> <p style='text-align:center'> We will show you two animations. However, only one of them is visible, the other animation is hidden.</p>  <p style='text-align:center'>Your task is to decide whether the sentence you will read describes the visible animation or the hidden animation. You should choose the hidden scenario if you consider the visible one inappropriate. You will then be asked how confident you were while making your choice.</p>",,,,
16529,9,,survey-likert,9,109384,0.0-9.0,zz4wr6qrjz,canonical training,CB+likert,,,testing.2,testing,The green circle,,2,target,wugs.,AB
10205,7,,survey-likert,10,120099,0.0-10.0,zz4wr6qrjz,canonical training,CB+likert,,,testing.1,testing,The green circle,,1,CB,does not wug.,AB
13125,7,,survey-likert,11,133731,0.0-11.0,zz4wr6qrjz,canonical training,CB+likert,,,testing.4,testing,The green circle,,1,CB,wugs.,notAB
10222,9,,survey-likert,12,144465,0.0-12.0,zz4wr6qrjz,canonical training,CB+likert,,,testing.3,testing,The green circle,,1,target,does not wug.,notAB
12791,8,,survey-likert,13,157772,0.0-13.0,zz4wr6qrjz,canonical training,CB+likert,,,testing.5,testing,Every green circle,,2,target,wugs.,all_true_universal
8734,7,,survey-likert,14,167013,0.0-14.0,zz4wr6qrjz,canonical training,CB+likert,,,testing.6,testing,None of the green circles,,1,target,wug.,none_true_universal
12667,6,,survey-likert,15,180188,0.0-15.0,zz4wr6qrjz,canonical training,CB+likert,,,testing.28,testing,None of the green circles,,2,CB,wug.,none_true_no_projection
11076,5,,survey-likert,16,191772,0.0-16.0,zz4wr6qrjz,canonical training,CB+likert,,,testing.19,testing,Every green circle,,2,CB,wugs.,all_true_no_projection
8597,5,,survey-likert,17,200879,0.0-17.0,zz4wr6qrjz,canonical training,CB+likert,,,testing.38,testing,Some of the green circles,,1,CB,wug.,some_false
12204,5,,survey-likert,18,213591,0.0-18.0,zz4wr6qrjz,canonical training,CB+likert,,,testing.26,testing,None of the green circles,,2,CB,wug.,none_true_existential
8534,8,,survey-likert,19,222628,0.0-19.0,zz4wr6qrjz,canonical training,CB+likert,,,testing.35,testing,Some of the green circles,,1,target,wug.,some_true
10621,5,,survey-likert,20,233764,0.0-20.0,zz4wr6qrjz,canonical training,CB+likert,,,testing.31,testing,None of the green circles,,1,CB,wug.,none_true_no_projection
9701,4,,survey-likert,21,243980,0.0-21.0,zz4wr6qrjz,canonical training,CB+likert,,,testing.27,testing,None of the green circles,,1,CB,wug.,none_true_existential
8472,4,,survey-likert,22,252966,0.0-22.0,zz4wr6qrjz,canonical training,CB+likert,,,testing.16,testing,Every green circle,,1,CB,wugs.,all_true_existential
8657,9,,survey-likert,23,262131,0.0-23.0,zz4wr6qrjz,canonical training,CB+likert,,,testing.8,testing,Every green circle,,1,target,wugs.,all_true_universal
8231,8,,survey-likert,24,270877,0.0-24.0,zz4wr6qrjz,canonical training,CB+likert,,,testing.17,testing,Every green circle,,1,target,wugs.,all_true_no_projection
8342,9,,survey-likert,25,279732,0.0-25.0,zz4wr6qrjz,canonical training,CB+likert,,,testing.15,testing,Every green circle,,1,target,wugs.,all_true_existential
7325,9,,survey-likert,26,287571,0.0-26.0,zz4wr6qrjz,canonical training,CB+likert,,,testing.21,testing,None of the green circles,,1,target,wug.,none_true_universal
8014,9,,survey-likert,27,296102,0.0-27.0,zz4wr6qrjz,canonical training,CB+likert,,,testing.22,testing,None of the green circles,,1,target,wug.,none_true_universal
12567,5,,survey-likert,28,309182,0.0-28.0,zz4wr6qrjz,canonical training,CB+likert,,,testing.29,testing,None of the green circles,,3,CB,wug.,none_true_no_projection
8309,8,,survey-likert,29,317995,0.0-29.0,zz4wr6qrjz,canonical training,CB+likert,,,testing.11,testing,Every green circle,,1,CB,wugs.,all_false
9499,5,,survey-likert,30,328007,0.0-30.0,zz4wr6qrjz,canonical training,CB+likert,,,testing.24,testing,None of the green circles,,1,CB,wug.,none_true_existential
7727,5,,survey-likert,31,336245,0.0-31.0,zz4wr6qrjz,canonical training,CB+likert,,,testing.23,testing,None of the green circles,,1,CB,wug.,none_true_universal
7530,9,,survey-likert,32,344279,0.0-32.0,zz4wr6qrjz,canonical training,CB+likert,,,testing.7,testing,Every green circle,,1,target,wugs.,all_true_universal
7024,5,,survey-likert,33,351808,0.0-33.0,zz4wr6qrjz,canonical training,CB+likert,,,testing.34,testing,None of the green circles,,1,CB,wug.,none_false
10298,6,,survey-likert,34,362622,0.0-34.0,zz4wr6qrjz,canonical training,CB+likert,,,testing.10,testing,Every green circle,,1,CB,wugs.,all_false
7343,6,,survey-likert,35,370475,0.0-35.0,zz4wr6qrjz,canonical training,CB+likert,,,testing.32,testing,None of the green circles,,1,CB,wug.,none_false
6927,9,,survey-likert,36,377915,0.0-36.0,zz4wr6qrjz,canonical training,CB+likert,,,testing.18,testing,Every green circle,,1,target,wugs.,all_true_no_projection
7177,9,,survey-likert,37,385607,0.0-37.0,zz4wr6qrjz,canonical training,CB+likert,,,testing.9,testing,Every green circle,,1,target,wugs.,all_true_universal
7488,5,,survey-likert,38,393600,0.0-38.0,zz4wr6qrjz,canonical training,CB+likert,,,testing.30,testing,None of the green circles,,1,CB,wug.,none_true_no_projection
7441,5,,survey-likert,39,401557,0.0-39.0,zz4wr6qrjz,canonical training,CB+likert,,,testing.25,testing,None of the green circles,,1,CB,wug.,none_true_existential
8725,9,,survey-likert,40,410799,0.0-40.0,zz4wr6qrjz,canonical training,CB+likert,,,testing.36,testing,Some of the green circles,,1,target,wug.,some_true
7125,5,,survey-likert,41,418442,0.0-41.0,zz4wr6qrjz,canonical training,CB+likert,,,testing.14,testing,Every green circle,,1,CB,wugs.,all_true_existential
8666,8,,survey-likert,42,427625,0.0-42.0,zz4wr6qrjz,canonical training,CB+likert,,,testing.33,testing,None of the green circles,,1,CB,wug.,none_false
7375,8,,survey-likert,43,435507,0.0-43.0,zz4wr6qrjz,canonical training,CB+likert,,,testing.37,testing,Some of the green circles,,1,CB,wug.,some_false
7504,9,,survey-likert,44,443514,0.0-44.0,zz4wr6qrjz,canonical training,CB+likert,,,testing.20,testing,Every green circle,,1,target,wugs.,all_true_no_projection
8564,6,,survey-likert,45,452597,0.0-45.0,zz4wr6qrjz,canonical training,CB+likert,,,testing.13,testing,Every green circle,,1,CB,wugs.,all_true_existential
7824,7,,survey-likert,46,460927,0.0-46.0,zz4wr6qrjz,canonical training,CB+likert,,,testing.12,testing,Every green circle,,1,CB,wugs.,all_false
9380,10,,survey-likert,47,470825,0.0-47.0,zz4wr6qrjz,canonical training,CB+likert,,,testing.39,testing,None of the green circles,,1,target,wug.,none_weird_red
8591,10,,survey-likert,48,479931,0.0-48.0,zz4wr6qrjz,canonical training,CB+likert,,,testing.41,testing,None of the green circles,,1,target,wug.,none_weird_nored
7549,7,,survey-likert,49,487997,0.0-49.0,zz4wr6qrjz,canonical training,CB+likert,,,testing.40,testing,Every green circle,,1,CB,wugs.,every_weird_red
6627,7,,survey-likert,50,495133,0.0-50.0,zz4wr6qrjz,canonical training,CB+likert,,,testing.42,testing,Every green circle,,1,CB,wugs.,every_weird_nored
8753,['wugging was about the relative position of the circle and the red line'],self_report,survey-multi-select,51,504416,0.0-51.0,zz4wr6qrjz,canonical training,CB+likert,,,,,,,,,,
18758,1g,demo.1,survey-dropdown,52,523178,0.0-52.0,zz4wr6qrjz,canonical training,CB+likert,,,,,,,,,,
18758,2+ug,demo.2,survey-dropdown,52,523178,0.0-52.0,zz4wr6qrjz,canonical training,CB+likert,,,,,,,,,,
18758,female,demo.3,survey-dropdown,52,523178,0.0-52.0,zz4wr6qrjz,canonical training,CB+likert,,,,,,,,,,
18758,25-34,demo.4,survey-dropdown,52,523178,0.0-52.0,zz4wr6qrjz,canonical training,CB+likert,,,,,,,,,,
11182,612f36ffdba08ffd6032560a,ProlificID,survey-text,0,11230,0.0-0.0,fqpboca102,canonical training,CB+likert,,,,,,,,,,
5038,NA,instructions,instructions,1,16268,0.0-1.0,fqpboca102,canonical training,CB+likert,"[{""page_index"":0,""viewing_time"":5038}]",,,,,,,,,
12836,NA,,html-button-delay-response,2,29106,0.0-2.0,fqpboca102,canonical training,CB+likert,,0,teaching.1,teaching,The green circle,,,,,
10607,NA,,html-button-delay-response,3,40226,0.0-3.0,fqpboca102,canonical training,CB+likert,,0,teaching.2,teaching,The green circle,,,,,
16805,NA,,html-button-delay-response,4,57547,0.0-4.0,fqpboca102,canonical training,CB+likert,,0,teaching.4,teaching,The green circle,,,,,
13003,NA,,html-button-delay-response,5,71055,0.0-5.0,fqpboca102,canonical training,CB+likert,,0,teaching.5,teaching,The green circle,,,,,
16210,NA,,html-button-delay-response,6,87771,0.0-6.0,fqpboca102,canonical training,CB+likert,,0,teaching.3,teaching,The green circle,,,,,
9179,NA,,html-button-delay-response,7,97454,0.0-7.0,fqpboca102,canonical training,CB+likert,,0,teaching.6,teaching,The green circle,,,,,
54103,NA,break,html-button-response,8,152060,0.0-8.0,fqpboca102,canonical training,CB+likert,,0,,,,"<p style='text-align:center'>Now, let's see how <b>you</b> use <i>wug</i>!</p> <p style='text-align:center'> We will show you two animations. However, only one of them is visible, the other animation is hidden.</p>  <p style='text-align:center'>Your task is to decide whether the sentence you will read describes the visible animation or the hidden animation. You should choose the hidden scenario if you consider the visible one inappropriate. You will then be asked how confident you were while making your choice.</p>",,,,
25680,10,,survey-likert,9,177743,0.0-9.0,fqpboca102,canonical training,CB+likert,,,testing.3,testing,The green circle,,3,target,does not wug.,notAB
22474,6,,survey-likert,10,200726,0.0-10.0,fqpboca102,canonical training,CB+likert,,,testing.1,testing,The green circle,,1,CB,does not wug.,AB
14035,7,,survey-likert,11,215280,0.0-11.0,fqpboca102,canonical training,CB+likert,,,testing.4,testing,The green circle,,1,CB,wugs.,notAB
11636,10,,survey-likert,12,227427,0.0-12.0,fqpboca102,canonical training,CB+likert,,,testing.2,testing,The green circle,,1,target,wugs.,AB
11918,10,,survey-likert,13,239863,0.0-13.0,fqpboca102,canonical training,CB+likert,,,testing.5,testing,Every green circle,,1,target,wugs.,all_true_universal
19113,10,,survey-likert,14,259492,0.0-14.0,fqpboca102,canonical training,CB+likert,,,testing.6,testing,None of the green circles,,1,target,wug.,none_true_universal
21429,5,,survey-likert,15,281439,0.0-15.0,fqpboca102,canonical training,CB+likert,,,testing.19,testing,Every green circle,,4,CB,wugs.,all_true_no_projection
21744,10,,survey-likert,16,303696,0.0-16.0,fqpboca102,canonical training,CB+likert,,,testing.22,testing,None of the green circles,,2,target,wug.,none_true_universal
16834,10,,survey-likert,17,321047,0.0-17.0,fqpboca102,canonical training,CB+likert,,,testing.20,testing,Every green circle,,2,target,wugs.,all_true_no_projection
14648,10,,survey-likert,18,336206,0.0-18.0,fqpboca102,canonical training,CB+likert,,,testing.9,testing,Every green circle,,1,target,wugs.,all_true_universal
11360,10,,survey-likert,19,348083,0.0-19.0,fqpboca102,canonical training,CB+likert,,,testing.36,testing,Some of the green circles,,2,target,wug.,some_true
12857,5,,survey-likert,20,361445,0.0-20.0,fqpboca102,canonical training,CB+likert,,,testing.10,testing,Every green circle,,1,CB,wugs.,all_false
14285,5,,survey-likert,21,376245,0.0-21.0,fqpboca102,canonical training,CB+likert,,,testing.34,testing,None of the green circles,,1,CB,wug.,none_false
9910,8,,survey-likert,22,386661,0.0-22.0,fqpboca102,canonical training,CB+likert,,,testing.11,testing,Every green circle,,1,CB,wugs.,all_false
10093,5,,survey-likert,23,397261,0.0-23.0,fqpboca102,canonical training,CB+likert,,,testing.16,testing,Every green circle,,2,CB,wugs.,all_true_existential
10625,5,,survey-likert,24,408394,0.0-24.0,fqpboca102,canonical training,CB+likert,,,testing.12,testing,Every green circle,,1,CB,wugs.,all_false
16222,10,,survey-likert,25,425123,0.0-25.0,fqpboca102,canonical training,CB+likert,,,testing.29,testing,None of the green circles,,3,target,wug.,none_true_no_projection
27187,10,,survey-likert,26,452814,0.0-26.0,fqpboca102,canonical training,CB+likert,,,testing.21,testing,None of the green circles,,5,target,wug.,none_true_universal
10488,5,,survey-likert,27,463812,0.0-27.0,fqpboca102,canonical training,CB+likert,,,testing.37,testing,Some of the green circles,,1,CB,wug.,some_false
20481,5,,survey-likert,28,484805,0.0-28.0,fqpboca102,canonical training,CB+likert,,,testing.33,testing,None of the green circles,,2,CB,wug.,none_false
15162,10,,survey-likert,29,500485,0.0-29.0,fqpboca102,canonical training,CB+likert,,,testing.31,testing,None of the green circles,,2,target,wug.,none_true_no_projection
11226,10,,survey-likert,30,512215,0.0-30.0,fqpboca102,canonical training,CB+likert,,,testing.38,testing,Some of the green circles,,1,CB,wug.,some_false
10121,10,,survey-likert,31,522852,0.0-31.0,fqpboca102,canonical training,CB+likert,,,testing.26,testing,None of the green circles,,1,target,wug.,none_true_existential
11517,10,,survey-likert,32,534877,0.0-32.0,fqpboca102,canonical training,CB+likert,,,testing.32,testing,None of the green circles,,1,CB,wug.,none_false
11301,5,,survey-likert,33,546681,0.0-33.0,fqpboca102,canonical training,CB+likert,,,testing.17,testing,Every green circle,,2,CB,wugs.,all_true_no_projection
12431,10,,survey-likert,34,559624,0.0-34.0,fqpboca102,canonical training,CB+likert,,,testing.35,testing,Some of the green circles,,1,target,wug.,some_true
25837,10,,survey-likert,35,585965,0.0-35.0,fqpboca102,canonical training,CB+likert,,,testing.24,testing,None of the green circles,,5,target,wug.,none_true_existential
14686,6,,survey-likert,36,601159,0.0-36.0,fqpboca102,canonical training,CB+likert,,,testing.14,testing,Every green circle,,2,CB,wugs.,all_true_existential
8845,10,,survey-likert,37,610511,0.0-37.0,fqpboca102,canonical training,CB+likert,,,testing.7,testing,Every green circle,,1,target,wugs.,all_true_universal
9614,10,,survey-likert,38,620642,0.0-38.0,fqpboca102,canonical training,CB+likert,,,testing.30,testing,None of the green circles,,2,target,wug.,none_true_no_projection
9882,5,,survey-likert,39,631033,0.0-39.0,fqpboca102,canonical training,CB+likert,,,testing.18,testing,Every green circle,,1,CB,wugs.,all_true_no_projection
13180,10,,survey-likert,40,644731,0.0-40.0,fqpboca102,canonical training,CB+likert,,,testing.25,testing,None of the green circles,,1,target,wug.,none_true_existential
13712,10,,survey-likert,41,658950,0.0-41.0,fqpboca102,canonical training,CB+likert,,,testing.8,testing,Every green circle,,2,target,wugs.,all_true_universal
13771,10,,survey-likert,42,673231,0.0-42.0,fqpboca102,canonical training,CB+likert,,,testing.28,testing,None of the green circles,,2,target,wug.,none_true_no_projection
7187,5,,survey-likert,43,680936,0.0-43.0,fqpboca102,canonical training,CB+likert,,,testing.15,testing,Every green circle,,1,CB,wugs.,all_true_existential
9069,10,,survey-likert,44,690508,0.0-44.0,fqpboca102,canonical training,CB+likert,,,testing.23,testing,None of the green circles,,1,CB,wug.,none_true_universal
10729,10,,survey-likert,45,701754,0.0-45.0,fqpboca102,canonical training,CB+likert,,,testing.13,testing,Every green circle,,1,CB,wugs.,all_true_existential
8832,10,,survey-likert,46,711094,0.0-46.0,fqpboca102,canonical training,CB+likert,,,testing.27,testing,None of the green circles,,1,target,wug.,none_true_existential
11400,5,,survey-likert,47,723007,0.0-47.0,fqpboca102,canonical training,CB+likert,,,testing.42,testing,Every green circle,,2,CB,wugs.,every_weird_nored
9656,10,,survey-likert,48,733175,0.0-48.0,fqpboca102,canonical training,CB+likert,,,testing.41,testing,None of the green circles,,1,target,wug.,none_weird_nored
12366,5,,survey-likert,49,746055,0.0-49.0,fqpboca102,canonical training,CB+likert,,,testing.40,testing,Every green circle,,2,CB,wugs.,every_weird_red
8328,10,,survey-likert,50,754899,0.0-50.0,fqpboca102,canonical training,CB+likert,,,testing.39,testing,None of the green circles,,1,target,wug.,none_weird_red
17326,"['wugging was primarily about vertical movement', 'wugging was primarily about starting on the red line']",self_report,survey-multi-select,51,772733,0.0-51.0,fqpboca102,canonical training,CB+likert,,,,,,,,,,
24071,1g,demo.1,survey-dropdown,52,796807,0.0-52.0,fqpboca102,canonical training,CB+likert,,,,,,,,,,
24071,none,demo.2,survey-dropdown,52,796807,0.0-52.0,fqpboca102,canonical training,CB+likert,,,,,,,,,,
24071,female,demo.3,survey-dropdown,52,796807,0.0-52.0,fqpboca102,canonical training,CB+likert,,,,,,,,,,
24071,25-34,demo.4,survey-dropdown,52,796807,0.0-52.0,fqpboca102,canonical training,CB+likert,,,,,,,,,,
6122,5ecc1eca9cfa860dab614a8b,ProlificID,survey-text,0,6128,0.0-0.0,hugaa0sc00,canonical training,CB+likert,,,,,,,,,,
3800,NA,instructions,instructions,1,9931,0.0-1.0,hugaa0sc00,canonical training,CB+likert,"[{""page_index"":0,""viewing_time"":3797}]",,,,,,,,,
8019,NA,,html-button-delay-response,2,17958,0.0-2.0,hugaa0sc00,canonical training,CB+likert,,0,teaching.2,teaching,The green circle,,,,,
3178,NA,,html-button-delay-response,3,21643,0.0-3.0,hugaa0sc00,canonical training,CB+likert,,0,teaching.1,teaching,The green circle,,,,,
3705,NA,,html-button-delay-response,4,25852,0.0-4.0,hugaa0sc00,canonical training,CB+likert,,0,teaching.3,teaching,The green circle,,,,,
2340,NA,,html-button-delay-response,5,28699,0.0-5.0,hugaa0sc00,canonical training,CB+likert,,0,teaching.6,teaching,The green circle,,,,,
2262,NA,,html-button-delay-response,6,31467,0.0-6.0,hugaa0sc00,canonical training,CB+likert,,0,teaching.4,teaching,The green circle,,,,,
2237,NA,,html-button-delay-response,7,34208,0.0-7.0,hugaa0sc00,canonical training,CB+likert,,0,teaching.5,teaching,The green circle,,,,,
8096,NA,break,html-button-response,8,42812,0.0-8.0,hugaa0sc00,canonical training,CB+likert,,0,,,,"<p style='text-align:center'>Now, let's see how <b>you</b> use <i>wug</i>!</p> <p style='text-align:center'> We will show you two animations. However, only one of them is visible, the other animation is hidden.</p>  <p style='text-align:center'>Your task is to decide whether the sentence you will read describes the visible animation or the hidden animation. You should choose the hidden scenario if you consider the visible one inappropriate. You will then be asked how confident you were while making your choice.</p>",,,,
4657,6,,survey-likert,9,47478,0.0-9.0,hugaa0sc00,canonical training,CB+likert,,,testing.3,testing,The green circle,,0,CB,does not wug.,notAB
8036,3,,survey-likert,10,56025,0.0-10.0,hugaa0sc00,canonical training,CB+likert,,,testing.4,testing,The green circle,,1,target,wugs.,notAB
5478,9,,survey-likert,11,62011,0.0-11.0,hugaa0sc00,canonical training,CB+likert,,,testing.2,testing,The green circle,,1,CB,wugs.,AB
4582,4,,survey-likert,12,67100,0.0-12.0,hugaa0sc00,canonical training,CB+likert,,,testing.1,testing,The green circle,,1,CB,does not wug.,AB
4393,10,,survey-likert,13,72003,0.0-13.0,hugaa0sc00,canonical training,CB+likert,,,testing.5,testing,Every green circle,,1,CB,wugs.,all_true_universal
7158,2,,survey-likert,14,79672,0.0-14.0,hugaa0sc00,canonical training,CB+likert,,,testing.6,testing,None of the green circles,,2,CB,wug.,none_true_universal
6690,5,,survey-likert,15,86873,0.0-15.0,hugaa0sc00,canonical training,CB+likert,,,testing.33,testing,None of the green circles,,1,CB,wug.,none_false
15217,6,,survey-likert,16,102603,0.0-16.0,hugaa0sc00,canonical training,CB+likert,,,testing.10,testing,Every green circle,,1,target,wugs.,all_false
5999,10,,survey-likert,17,109111,0.0-17.0,hugaa0sc00,canonical training,CB+likert,,,testing.24,testing,None of the green circles,,1,target,wug.,none_true_existential
5356,7,,survey-likert,18,114977,0.0-18.0,hugaa0sc00,canonical training,CB+likert,,,testing.38,testing,Some of the green circles,,1,target,wug.,some_false
5134,3,,survey-likert,19,120619,0.0-19.0,hugaa0sc00,canonical training,CB+likert,,,testing.19,testing,Every green circle,,1,target,wugs.,all_true_no_projection
7153,4,,survey-likert,20,128279,0.0-20.0,hugaa0sc00,canonical training,CB+likert,,,testing.31,testing,None of the green circles,,1,CB,wug.,none_true_no_projection
3537,3,,survey-likert,21,132326,0.0-21.0,hugaa0sc00,canonical training,CB+likert,,,testing.11,testing,Every green circle,,0,target,wugs.,all_false
5763,4,,survey-likert,22,138599,0.0-22.0,hugaa0sc00,canonical training,CB+likert,,,testing.18,testing,Every green circle,,1,target,wugs.,all_true_no_projection
4243,6,,survey-likert,23,143354,0.0-23.0,hugaa0sc00,canonical training,CB+likert,,,testing.35,testing,Some of the green circles,,1,target,wug.,some_true
3286,5,,survey-likert,24,147147,0.0-24.0,hugaa0sc00,canonical training,CB+likert,,,testing.27,testing,None of the green circles,,1,target,wug.,none_true_existential
4750,5,,survey-likert,25,152405,0.0-25.0,hugaa0sc00,canonical training,CB+likert,,,testing.22,testing,None of the green circles,,1,target,wug.,none_true_universal
11065,6,,survey-likert,26,163976,0.0-26.0,hugaa0sc00,canonical training,CB+likert,,,testing.14,testing,Every green circle,,1,target,wugs.,all_true_existential
6619,7,,survey-likert,27,171102,0.0-27.0,hugaa0sc00,canonical training,CB+likert,,,testing.29,testing,None of the green circles,,1,target,wug.,none_true_no_projection
13046,6,,survey-likert,28,184656,0.0-28.0,hugaa0sc00,canonical training,CB+likert,,,testing.28,testing,None of the green circles,,0,target,wug.,none_true_no_projection
6458,6,,survey-likert,29,191619,0.0-29.0,hugaa0sc00,canonical training,CB+likert,,,testing.12,testing,Every green circle,,0,target,wugs.,all_false
6844,7,,survey-likert,30,198969,0.0-30.0,hugaa0sc00,canonical training,CB+likert,,,testing.32,testing,None of the green circles,,0,target,wug.,none_false
4719,7,,survey-likert,31,204196,0.0-31.0,hugaa0sc00,canonical training,CB+likert,,,testing.34,testing,None of the green circles,,0,CB,wug.,none_false
6948,6,,survey-likert,32,211655,0.0-32.0,hugaa0sc00,canonical training,CB+likert,,,testing.8,testing,Every green circle,,1,target,wugs.,all_true_universal
7921,6,,survey-likert,33,220086,0.0-33.0,hugaa0sc00,canonical training,CB+likert,,,testing.23,testing,None of the green circles,,1,target,wug.,none_true_universal
6774,8,,survey-likert,34,227366,0.0-34.0,hugaa0sc00,canonical training,CB+likert,,,testing.13,testing,Every green circle,,1,target,wugs.,all_true_existential
11717,7,,survey-likert,35,239590,0.0-35.0,hugaa0sc00,canonical training,CB+likert,,,testing.30,testing,None of the green circles,,1,target,wug.,none_true_no_projection
3499,6,,survey-likert,36,243597,0.0-36.0,hugaa0sc00,canonical training,CB+likert,,,testing.25,testing,None of the green circles,,1,target,wug.,none_true_existential
3284,3,,survey-likert,37,247388,0.0-37.0,hugaa0sc00,canonical training,CB+likert,,,testing.37,testing,Some of the green circles,,1,target,wug.,some_false
7981,5,,survey-likert,38,255877,0.0-38.0,hugaa0sc00,canonical training,CB+likert,,,testing.15,testing,Every green circle,,1,target,wugs.,all_true_existential
4511,7,,survey-likert,39,260897,0.0-39.0,hugaa0sc00,canonical training,CB+likert,,,testing.36,testing,Some of the green circles,,1,target,wug.,some_true
2846,3,,survey-likert,40,264250,0.0-40.0,hugaa0sc00,canonical training,CB+likert,,,testing.16,testing,Every green circle,,1,target,wugs.,all_true_existential
9060,7,,survey-likert,41,273817,0.0-41.0,hugaa0sc00,canonical training,CB+likert,,,testing.17,testing,Every green circle,,1,target,wugs.,all_true_no_projection
2750,4,,survey-likert,42,277073,0.0-42.0,hugaa0sc00,canonical training,CB+likert,,,testing.21,testing,None of the green circles,,1,target,wug.,none_true_universal
2897,7,,survey-likert,43,280478,0.0-43.0,hugaa0sc00,canonical training,CB+likert,,,testing.9,testing,Every green circle,,1,target,wugs.,all_true_universal
3056,4,,survey-likert,44,284044,0.0-44.0,hugaa0sc00,canonical training,CB+likert,,,testing.20,testing,Every green circle,,1,target,wugs.,all_true_no_projection
7154,7,,survey-likert,45,291708,0.0-45.0,hugaa0sc00,canonical training,CB+likert,,,testing.7,testing,Every green circle,,1,target,wugs.,all_true_universal
3526,5,,survey-likert,46,295744,0.0-46.0,hugaa0sc00,canonical training,CB+likert,,,testing.26,testing,None of the green circles,,1,target,wug.,none_true_existential
7811,7,,survey-likert,47,304063,0.0-47.0,hugaa0sc00,canonical training,CB+likert,,,testing.42,testing,Every green circle,,1,target,wugs.,every_weird_nored
3199,6,,survey-likert,48,307768,0.0-48.0,hugaa0sc00,canonical training,CB+likert,,,testing.41,testing,None of the green circles,,1,target,wug.,none_weird_nored
2496,7,,survey-likert,49,310772,0.0-49.0,hugaa0sc00,canonical training,CB+likert,,,testing.40,testing,Every green circle,,1,target,wugs.,every_weird_red
13788,7,,survey-likert,50,325066,0.0-50.0,hugaa0sc00,canonical training,CB+likert,,,testing.39,testing,None of the green circles,,1,target,wug.,none_weird_red
22046,"['wugging was primarily about vertical movement', 'wugging was primarily about starting on the red line']",self_report,survey-multi-select,51,347629,0.0-51.0,hugaa0sc00,canonical training,CB+likert,,,,,,,,,,
22373,none,demo.1,survey-dropdown,52,370018,0.0-52.0,hugaa0sc00,canonical training,CB+likert,,,,,,,,,,
22373,none,demo.2,survey-dropdown,52,370018,0.0-52.0,hugaa0sc00,canonical training,CB+likert,,,,,,,,,,
22373,male,demo.3,survey-dropdown,52,370018,0.0-52.0,hugaa0sc00,canonical training,CB+likert,,,,,,,,,,
22373,12-24,demo.4,survey-dropdown,52,370018,0.0-52.0,hugaa0sc00,canonical training,CB+likert,,,,,,,,,,
9000,5991980db83f800001a5e38f,ProlificID,survey-text,0,9002,0.0-0.0,fdrq41y81e,canonical training,CB+likert,,,,,,,,,,
5272,NA,instructions,instructions,1,14278,0.0-1.0,fdrq41y81e,canonical training,CB+likert,"[{""page_index"":0,""viewing_time"":5271}]",,,,,,,,,
13464,NA,,html-button-delay-response,2,27745,0.0-2.0,fdrq41y81e,canonical training,CB+likert,,0,teaching.2,teaching,The green circle,,,,,
8973,NA,,html-button-delay-response,3,37227,0.0-3.0,fdrq41y81e,canonical training,CB+likert,,0,teaching.1,teaching,The green circle,,,,,
14728,NA,,html-button-delay-response,4,52465,0.0-4.0,fdrq41y81e,canonical training,CB+likert,,0,teaching.4,teaching,The green circle,,,,,
10753,NA,,html-button-delay-response,5,63729,0.0-5.0,fdrq41y81e,canonical training,CB+likert,,0,teaching.6,teaching,The green circle,,,,,
5599,NA,,html-button-delay-response,6,69844,0.0-6.0,fdrq41y81e,canonical training,CB+likert,,0,teaching.5,teaching,The green circle,,,,,
7587,NA,,html-button-delay-response,7,77935,0.0-7.0,fdrq41y81e,canonical training,CB+likert,,0,teaching.3,teaching,The green circle,,,,,
15660,NA,break,html-button-response,8,94097,0.0-8.0,fdrq41y81e,canonical training,CB+likert,,0,,,,"<p style='text-align:center'>Now, let's see how <b>you</b> use <i>wug</i>!</p> <p style='text-align:center'> We will show you two animations. However, only one of them is visible, the other animation is hidden.</p>  <p style='text-align:center'>Your task is to decide whether the sentence you will read describes the visible animation or the hidden animation. You should choose the hidden scenario if you consider the visible one inappropriate. You will then be asked how confident you were while making your choice.</p>",,,,
26675,10,,survey-likert,9,120775,0.0-9.0,fdrq41y81e,canonical training,CB+likert,,,testing.4,testing,The green circle,,1,CB,wugs.,notAB
15701,10,,survey-likert,10,136987,0.0-10.0,fdrq41y81e,canonical training,CB+likert,,,testing.1,testing,The green circle,,1,CB,does not wug.,AB
22772,10,,survey-likert,11,160277,0.0-11.0,fdrq41y81e,canonical training,CB+likert,,,testing.3,testing,The green circle,,1,target,does not wug.,notAB
11768,10,,survey-likert,12,172556,0.0-12.0,fdrq41y81e,canonical training,CB+likert,,,testing.2,testing,The green circle,,1,target,wugs.,AB
12260,10,,survey-likert,13,185330,0.0-13.0,fdrq41y81e,canonical training,CB+likert,,,testing.5,testing,Every green circle,,1,target,wugs.,all_true_universal
16925,10,,survey-likert,14,202769,0.0-14.0,fdrq41y81e,canonical training,CB+likert,,,testing.6,testing,None of the green circles,,1,target,wug.,none_true_universal
13804,10,,survey-likert,15,217081,0.0-15.0,fdrq41y81e,canonical training,CB+likert,,,testing.21,testing,None of the green circles,,1,target,wug.,none_true_universal
16119,10,,survey-likert,16,233712,0.0-16.0,fdrq41y81e,canonical training,CB+likert,,,testing.18,testing,Every green circle,,1,target,wugs.,all_true_no_projection
16841,10,,survey-likert,17,251062,0.0-17.0,fdrq41y81e,canonical training,CB+likert,,,testing.26,testing,None of the green circles,,2,target,wug.,none_true_existential
11082,10,,survey-likert,18,262658,0.0-18.0,fdrq41y81e,canonical training,CB+likert,,,testing.27,testing,None of the green circles,,1,CB,wug.,none_true_existential
26756,10,,survey-likert,19,289919,0.0-19.0,fdrq41y81e,canonical training,CB+likert,,,testing.19,testing,Every green circle,,1,CB,wugs.,all_true_no_projection
16698,10,,survey-likert,20,307133,0.0-20.0,fdrq41y81e,canonical training,CB+likert,,,testing.29,testing,None of the green circles,,1,CB,wug.,none_true_no_projection
11480,10,,survey-likert,21,319117,0.0-21.0,fdrq41y81e,canonical training,CB+likert,,,testing.37,testing,Some of the green circles,,1,CB,wug.,some_false
9460,10,,survey-likert,22,329080,0.0-22.0,fdrq41y81e,canonical training,CB+likert,,,testing.7,testing,Every green circle,,1,target,wugs.,all_true_universal
10536,10,,survey-likert,23,340121,0.0-23.0,fdrq41y81e,canonical training,CB+likert,,,testing.9,testing,Every green circle,,1,target,wugs.,all_true_universal
13546,10,,survey-likert,24,354179,0.0-24.0,fdrq41y81e,canonical training,CB+likert,,,testing.30,testing,None of the green circles,,1,CB,wug.,none_true_no_projection
11941,10,,survey-likert,25,366623,0.0-25.0,fdrq41y81e,canonical training,CB+likert,,,testing.11,testing,Every green circle,,1,CB,wugs.,all_false
10865,10,,survey-likert,26,378006,0.0-26.0,fdrq41y81e,canonical training,CB+likert,,,testing.23,testing,None of the green circles,,1,CB,wug.,none_true_universal
17387,10,,survey-likert,27,395902,0.0-27.0,fdrq41y81e,canonical training,CB+likert,,,testing.25,testing,None of the green circles,,1,CB,wug.,none_true_existential
10316,10,,survey-likert,28,406730,0.0-28.0,fdrq41y81e,canonical training,CB+likert,,,testing.14,testing,Every green circle,,1,CB,wugs.,all_true_existential
9175,10,,survey-likert,29,416408,0.0-29.0,fdrq41y81e,canonical training,CB+likert,,,testing.36,testing,Some of the green circles,,1,target,wug.,some_true
16897,10,,survey-likert,30,433808,0.0-30.0,fdrq41y81e,canonical training,CB+likert,,,testing.10,testing,Every green circle,,1,CB,wugs.,all_false
17089,10,,survey-likert,31,451401,0.0-31.0,fdrq41y81e,canonical training,CB+likert,,,testing.16,testing,Every green circle,,1,CB,wugs.,all_true_existential
10493,10,,survey-likert,32,462404,0.0-32.0,fdrq41y81e,canonical training,CB+likert,,,testing.15,testing,Every green circle,,1,target,wugs.,all_true_existential
11968,10,,survey-likert,33,474886,0.0-33.0,fdrq41y81e,canonical training,CB+likert,,,testing.38,testing,Some of the green circles,,1,CB,wug.,some_false
11346,10,,survey-likert,34,486748,0.0-34.0,fdrq41y81e,canonical training,CB+likert,,,testing.22,testing,None of the green circles,,1,target,wug.,none_true_universal
23970,10,,survey-likert,35,511225,0.0-35.0,fdrq41y81e,canonical training,CB+likert,,,testing.28,testing,None of the green circles,,2,CB,wug.,none_true_no_projection
12485,10,,survey-likert,36,524218,0.0-36.0,fdrq41y81e,canonical training,CB+likert,,,testing.12,testing,Every green circle,,1,CB,wugs.,all_false
11732,10,,survey-likert,37,536456,0.0-37.0,fdrq41y81e,canonical training,CB+likert,,,testing.34,testing,None of the green circles,,2,CB,wug.,none_false
15979,10,,survey-likert,38,552941,0.0-38.0,fdrq41y81e,canonical training,CB+likert,,,testing.13,testing,Every green circle,,1,CB,wugs.,all_true_existential
16270,10,,survey-likert,39,569728,0.0-39.0,fdrq41y81e,canonical training,CB+likert,,,testing.24,testing,None of the green circles,,1,CB,wug.,none_true_existential
9645,10,,survey-likert,40,579885,0.0-40.0,fdrq41y81e,canonical training,CB+likert,,,testing.33,testing,None of the green circles,,1,CB,wug.,none_false
10640,10,,survey-likert,41,591033,0.0-41.0,fdrq41y81e,canonical training,CB+likert,,,testing.31,testing,None of the green circles,,1,CB,wug.,none_true_no_projection
9392,10,,survey-likert,42,600938,0.0-42.0,fdrq41y81e,canonical training,CB+likert,,,testing.8,testing,Every green circle,,1,target,wugs.,all_true_universal
11611,10,,survey-likert,43,613058,0.0-43.0,fdrq41y81e,canonical training,CB+likert,,,testing.17,testing,Every green circle,,1,target,wugs.,all_true_no_projection
10198,10,,survey-likert,44,623768,0.0-44.0,fdrq41y81e,canonical training,CB+likert,,,testing.35,testing,Some of the green circles,,1,target,wug.,some_true
9914,10,,survey-likert,45,634188,0.0-45.0,fdrq41y81e,canonical training,CB+likert,,,testing.32,testing,None of the green circles,,1,CB,wug.,none_false
8497,10,,survey-likert,46,643192,0.0-46.0,fdrq41y81e,canonical training,CB+likert,,,testing.20,testing,Every green circle,,1,target,wugs.,all_true_no_projection
11872,10,,survey-likert,47,655578,0.0-47.0,fdrq41y81e,canonical training,CB+likert,,,testing.39,testing,None of the green circles,,1,target,wug.,none_weird_red
12806,10,,survey-likert,48,668896,0.0-48.0,fdrq41y81e,canonical training,CB+likert,,,testing.40,testing,Every green circle,,1,CB,wugs.,every_weird_red
12610,10,,survey-likert,49,682011,0.0-49.0,fdrq41y81e,canonical training,CB+likert,,,testing.42,testing,Every green circle,,1,CB,wugs.,every_weird_nored
26651,10,,survey-likert,50,709169,0.0-50.0,fdrq41y81e,canonical training,CB+likert,,,testing.41,testing,None of the green circles,,1,target,wug.,none_weird_nored
15953,['wugging was primarily about starting on the red line'],self_report,survey-multi-select,51,725632,0.0-51.0,fdrq41y81e,canonical training,CB+likert,,,,,,,,,,
34693,1ug,demo.1,survey-dropdown,52,760334,0.0-52.0,fdrq41y81e,canonical training,CB+likert,,,,,,,,,,
34693,2+g,demo.2,survey-dropdown,52,760334,0.0-52.0,fdrq41y81e,canonical training,CB+likert,,,,,,,,,,
34693,male,demo.3,survey-dropdown,52,760334,0.0-52.0,fdrq41y81e,canonical training,CB+likert,,,,,,,,,,
34693,55-64,demo.4,survey-dropdown,52,760334,0.0-52.0,fdrq41y81e,canonical training,CB+likert,,,,,,,,,,
11472,5f312371239da05b27823964,ProlificID,survey-text,0,11477,0.0-0.0,e0odmmj127,canonical training,CB+likert,,,,,,,,,,
3810,NA,instructions,instructions,1,15292,0.0-1.0,e0odmmj127,canonical training,CB+likert,"[{""page_index"":0,""viewing_time"":3807}]",,,,,,,,,
47328,NA,,html-button-delay-response,2,62631,0.0-2.0,e0odmmj127,canonical training,CB+likert,,0,teaching.2,teaching,The green circle,,,,,
7987,NA,,html-button-delay-response,3,71127,0.0-3.0,e0odmmj127,canonical training,CB+likert,,0,teaching.1,teaching,The green circle,,,,,
10634,NA,,html-button-delay-response,4,82271,0.0-4.0,e0odmmj127,canonical training,CB+likert,,0,teaching.5,teaching,The green circle,,,,,
5837,NA,,html-button-delay-response,5,88615,0.0-5.0,e0odmmj127,canonical training,CB+likert,,0,teaching.4,teaching,The green circle,,,,,
4822,NA,,html-button-delay-response,6,93947,0.0-6.0,e0odmmj127,canonical training,CB+likert,,0,teaching.6,teaching,The green circle,,,,,
6030,NA,,html-button-delay-response,7,100486,0.0-7.0,e0odmmj127,canonical training,CB+likert,,0,teaching.3,teaching,The green circle,,,,,
17471,NA,break,html-button-response,8,118469,0.0-8.0,e0odmmj127,canonical training,CB+likert,,0,,,,"<p style='text-align:center'>Now, let's see how <b>you</b> use <i>wug</i>!</p> <p style='text-align:center'> We will show you two animations. However, only one of them is visible, the other animation is hidden.</p>  <p style='text-align:center'>Your task is to decide whether the sentence you will read describes the visible animation or the hidden animation. You should choose the hidden scenario if you consider the visible one inappropriate. You will then be asked how confident you were while making your choice.</p>",,,,
