rt,responses,questionId,trial_type,trial_index,time_elapsed,internal_node_id,subjectId,view_history,stimulus,key_press,button_pressed,id,type,shape,color,condition
2616,5ebaad159776ec0008518918,ProlificID,survey-text,0,2617,0.0-0.0,qjflwa296p,,,,,,,,,
1423,NA,instructions,instructions,1,4041,0.0-1.0,qjflwa296p,"[{""page_index"":0,""viewing_time"":1423}]",,,,,,,,
null,NA,,html-keyboard-response,2,7545,0.0-2.0,qjflwa296p,,<p style='text-align:center'>The dot is going to wug:</p><div  class = 'container'> <div class='container3'><div class='palette'><div class='color1'></div><div class='color2'></div><div class='color3_red'></div><div class='color4'></div><div class='color5'></div><div class='color6'></div><div class='color7'></div><div class='color8'></div></div><div class='dot34'></div></div> </div>,null,,,,,,
null,NA,,html-keyboard-response,3,12048,0.0-3.0,qjflwa296p,,<p style='text-align:center'>The dot is going to wug:</p><div  class = 'container'> <div class='container3'><div class='palette'><div class='color1'></div><div class='color2'></div><div class='color3'></div><div class='color4'></div><div class='color5'></div><div class='color6'></div><div class='color7_red'></div><div class='color8'></div></div><div class='dot78'></div></div> </div>,null,,,,,,
null,NA,,html-keyboard-response,4,16553,0.0-4.0,qjflwa296p,,<p style='text-align:center'>The dot is going to wug:</p><div  class = 'container'> <div class='container3'><div class='palette'><div class='color1'></div><div class='color2'></div><div class='color3'></div><div class='color4_red'></div><div class='color5'></div><div class='color6'></div><div class='color7'></div><div class='color8'></div></div><div class='dot45'></div></div> </div>,null,,,,,,
null,NA,,html-keyboard-response,5,21079,0.0-5.0,qjflwa296p,,<p style='text-align:center'>The dot is going to wug:</p><div  class = 'container'> <div class='container3'><div class='palette'><div class='color1'></div><div class='color2'></div><div class='color3'></div><div class='color4'></div><div class='color5'></div><div class='color6_red'></div><div class='color7'></div><div class='color8'></div></div><div class='dot67'></div></div> </div>,null,,,,,,
null,NA,,html-keyboard-response,6,25593,0.0-6.0,qjflwa296p,,<p style='text-align:center'>The dot is going to wug:</p><div  class = 'container'> <div class='container3'><div class='palette'><div class='color1'></div><div class='color2_red'></div><div class='color3'></div><div class='color4'></div><div class='color5'></div><div class='color6'></div><div class='color7'></div><div class='color8'></div></div><div class='dot23'></div></div> </div>,null,,,,,,
null,NA,,html-keyboard-response,7,30114,0.0-7.0,qjflwa296p,,<p style='text-align:center'>The dot is going to wug:</p><div  class = 'container'> <div class='container3'><div class='palette'><div class='color1_red'></div><div class='color2'></div><div class='color3'></div><div class='color4'></div><div class='color5'></div><div class='color6'></div><div class='color7'></div><div class='color8'></div></div><div class='dot12'></div></div> </div>,null,,,,,,
1853,NA,break,html-button-response,8,32969,0.0-8.0,qjflwa296p,,"<p style='text-align:center'>Now, let's see how <b>you</b> use <i>wug</i>! You will see animations and will be asked to make a decision.</p>",,0,,,,,
5855,NA,,html-button-delay-response,9,38825,0.0-9.0,qjflwa296p,,<div  class = 'container2'> <div class='container3'><div class='palette'><div class='color1'></div><div class='color2'></div><div class='color3'></div><div class='color4'></div><div class='color5_red'></div><div class='color6'></div><div class='color7'></div><div class='color8'></div></div><div class='dot56'></div></div> </div>,,2,testing.1,testing,dot,,AB
4970,NA,,html-button-delay-response,10,44298,0.0-10.0,qjflwa296p,,<div  class = 'container2'> <div class='container3'><div class='palette'><div class='color1_red'></div><div class='color2'></div><div class='color3'></div><div class='color4'></div><div class='color5'></div><div class='color6'></div><div class='color7'></div><div class='color8'></div></div><div class='dot21'></div></div> </div>,,0,testing.2,testing,dot,,notAnotB
4625,NA,,html-button-delay-response,11,49425,0.0-11.0,qjflwa296p,,<div  class = 'container2'> <div class='container3'><div class='palette'><div class='color1'></div><div class='color2'></div><div class='color3'></div><div class='color4'></div><div class='color5'></div><div class='color6'></div><div class='color7_red'></div><div class='color8'></div></div><div class='dot76'></div></div> </div>,,0,testing.3,testing,dot,,notAB
4536,NA,,html-button-delay-response,12,54465,0.0-12.0,qjflwa296p,,<div  class = 'container2'> <div class='container3'><div class='palette'><div class='color1'></div><div class='color2'></div><div class='color3_red'></div><div class='color4'></div><div class='color5'></div><div class='color6'></div><div class='color7'></div><div class='color8'></div></div><div class='dot43'></div></div> </div>,,0,testing.14,testing,dot,,notAnotB
5683,NA,,html-button-delay-response,13,60649,0.0-13.0,qjflwa296p,,<div  class = 'container2'> <div class='container3'><div class='palette'><div class='color1'></div><div class='color2_red'></div><div class='color3'></div><div class='color4'></div><div class='color5'></div><div class='color6'></div><div class='color7'></div><div class='color8'></div></div><div class='dot56'></div></div> </div>,,2,testing.6,testing,dot,,AnotB_grey
4563,NA,,html-button-delay-response,14,65713,0.0-14.0,qjflwa296p,,<div  class = 'container2'> <div class='container3'><div class='palette'><div class='color1'></div><div class='color2'></div><div class='color3'></div><div class='color4_red'></div><div class='color5'></div><div class='color6'></div><div class='color7'></div><div class='color8'></div></div><div class='dot45'></div></div> </div>,,2,testing.13,testing,dot,,AB
4635,NA,,html-button-delay-response,15,70849,0.0-15.0,qjflwa296p,,<div  class = 'container2'> <div class='container3'><div class='palette'><div class='color1'></div><div class='color2'></div><div class='color3_red'></div><div class='color4'></div><div class='color5'></div><div class='color6'></div><div class='color7'></div><div class='color8'></div></div><div class='dot32'></div></div> </div>,,0,testing.4,testing,dot,,notAB
4562,NA,,html-button-delay-response,16,75913,0.0-16.0,qjflwa296p,,<div  class = 'container2'> <div class='container3'><div class='palette'><div class='color1'></div><div class='color2_red'></div><div class='color3'></div><div class='color4'></div><div class='color5'></div><div class='color6'></div><div class='color7'></div><div class='color8'></div></div><div class='dot23'></div></div> </div>,,2,testing.12,testing,dot,,AB
4417,NA,,html-button-delay-response,17,80833,0.0-17.0,qjflwa296p,,<div  class = 'container2'> <div class='container3'><div class='palette'><div class='color1'></div><div class='color2'></div><div class='color3'></div><div class='color4'></div><div class='color5'></div><div class='color6'></div><div class='color7_red'></div><div class='color8'></div></div><div class='dot67'></div></div> </div>,,2,testing.11,testing,dot,,AnotB_red
4570,NA,,html-button-delay-response,18,85905,0.0-18.0,qjflwa296p,,<div  class = 'container2'> <div class='container3'><div class='palette'><div class='color1'></div><div class='color2'></div><div class='color3'></div><div class='color4'></div><div class='color5_red'></div><div class='color6'></div><div class='color7'></div><div class='color8'></div></div><div class='dot54'></div></div> </div>,,0,testing.5,testing,dot,,notAB
4530,NA,,html-button-delay-response,19,90937,0.0-19.0,qjflwa296p,,<div  class = 'container2'> <div class='container3'><div class='palette'><div class='color1'></div><div class='color2'></div><div class='color3'></div><div class='color4'></div><div class='color5'></div><div class='color6'></div><div class='color7_red'></div><div class='color8'></div></div><div class='dot45'></div></div> </div>,,2,testing.7,testing,dot,,AnotB_grey
4482,NA,,html-button-delay-response,20,95921,0.0-20.0,qjflwa296p,,<div  class = 'container2'> <div class='container3'><div class='palette'><div class='color1'></div><div class='color2'></div><div class='color3'></div><div class='color4'></div><div class='color5'></div><div class='color6_red'></div><div class='color7'></div><div class='color8'></div></div><div class='dot76'></div></div> </div>,,0,testing.15,testing,dot,,notAnotB
4489,NA,,html-button-delay-response,21,100912,0.0-21.0,qjflwa296p,,<div  class = 'container2'> <div class='container3'><div class='palette'><div class='color1'></div><div class='color2'></div><div class='color3'></div><div class='color4'></div><div class='color5'></div><div class='color6_red'></div><div class='color7'></div><div class='color8'></div></div><div class='dot56'></div></div> </div>,,2,testing.9,testing,dot,,AnotB_red
4417,NA,,html-button-delay-response,22,105841,0.0-22.0,qjflwa296p,,<div  class = 'container2'> <div class='container3'><div class='palette'><div class='color1'></div><div class='color2'></div><div class='color3'></div><div class='color4'></div><div class='color5_red'></div><div class='color6'></div><div class='color7'></div><div class='color8'></div></div><div class='dot78'></div></div> </div>,,2,testing.8,testing,dot,,AnotB_grey
4353,NA,,html-button-delay-response,23,110697,0.0-23.0,qjflwa296p,,<div  class = 'container2'> <div class='container3'><div class='palette'><div class='color1'></div><div class='color2_red'></div><div class='color3'></div><div class='color4'></div><div class='color5'></div><div class='color6'></div><div class='color7'></div><div class='color8'></div></div><div class='dot12'></div></div> </div>,,2,testing.10,testing,dot,,AnotB_red
4735,['wugging had to do with the direction of the movement/rotation direction'],self_report,survey-multi-select,24,115937,0.0-24.0,qjflwa296p,,,,,,,,,
11511,none,demo.1,survey-dropdown,25,127449,0.0-25.0,qjflwa296p,,,,,,,,,
11511,none,demo.2,survey-dropdown,25,127449,0.0-25.0,qjflwa296p,,,,,,,,,
11511,male,demo.3,survey-dropdown,25,127449,0.0-25.0,qjflwa296p,,,,,,,,,
11511,12-24,demo.4,survey-dropdown,25,127449,0.0-25.0,qjflwa296p,,,,,,,,,
4036,5f5bc5a78f9451367564d7c5,ProlificID,survey-text,0,4038,0.0-0.0,77g1m6po3w,,,,,,,,,
6117,NA,instructions,instructions,1,10158,0.0-1.0,77g1m6po3w,"[{""page_index"":0,""viewing_time"":6114}]",,,,,,,,
null,NA,,html-keyboard-response,2,13664,0.0-2.0,77g1m6po3w,,<p style='text-align:center'>The dot is going to wug:</p><div  class = 'container'> <div class='container3'><div class='palette'><div class='color1'></div><div class='color2'></div><div class='color3'></div><div class='color4'></div><div class='color5'></div><div class='color6'></div><div class='color7_red'></div><div class='color8'></div></div><div class='dot78'></div></div> </div>,null,,,,,,
null,NA,,html-keyboard-response,3,18172,0.0-3.0,77g1m6po3w,,<p style='text-align:center'>The dot is going to wug:</p><div  class = 'container'> <div class='container3'><div class='palette'><div class='color1'></div><div class='color2'></div><div class='color3'></div><div class='color4'></div><div class='color5'></div><div class='color6_red'></div><div class='color7'></div><div class='color8'></div></div><div class='dot67'></div></div> </div>,null,,,,,,
null,NA,,html-keyboard-response,4,22677,0.0-4.0,77g1m6po3w,,<p style='text-align:center'>The dot is going to wug:</p><div  class = 'container'> <div class='container3'><div class='palette'><div class='color1'></div><div class='color2'></div><div class='color3'></div><div class='color4_red'></div><div class='color5'></div><div class='color6'></div><div class='color7'></div><div class='color8'></div></div><div class='dot45'></div></div> </div>,null,,,,,,
null,NA,,html-keyboard-response,5,27181,0.0-5.0,77g1m6po3w,,<p style='text-align:center'>The dot is going to wug:</p><div  class = 'container'> <div class='container3'><div class='palette'><div class='color1_red'></div><div class='color2'></div><div class='color3'></div><div class='color4'></div><div class='color5'></div><div class='color6'></div><div class='color7'></div><div class='color8'></div></div><div class='dot12'></div></div> </div>,null,,,,,,
null,NA,,html-keyboard-response,6,31685,0.0-6.0,77g1m6po3w,,<p style='text-align:center'>The dot is going to wug:</p><div  class = 'container'> <div class='container3'><div class='palette'><div class='color1'></div><div class='color2_red'></div><div class='color3'></div><div class='color4'></div><div class='color5'></div><div class='color6'></div><div class='color7'></div><div class='color8'></div></div><div class='dot23'></div></div> </div>,null,,,,,,
null,NA,,html-keyboard-response,7,36190,0.0-7.0,77g1m6po3w,,<p style='text-align:center'>The dot is going to wug:</p><div  class = 'container'> <div class='container3'><div class='palette'><div class='color1'></div><div class='color2'></div><div class='color3_red'></div><div class='color4'></div><div class='color5'></div><div class='color6'></div><div class='color7'></div><div class='color8'></div></div><div class='dot34'></div></div> </div>,null,,,,,,
4639,NA,break,html-button-response,8,41834,0.0-8.0,77g1m6po3w,,"<p style='text-align:center'>Now, let's see how <b>you</b> use <i>wug</i>! You will see animations and will be asked to make a decision.</p>",,0,,,,,
6926,NA,,html-button-delay-response,9,48765,0.0-9.0,77g1m6po3w,,<div  class = 'container2'> <div class='container3'><div class='palette'><div class='color1'></div><div class='color2'></div><div class='color3'></div><div class='color4'></div><div class='color5_red'></div><div class='color6'></div><div class='color7'></div><div class='color8'></div></div><div class='dot56'></div></div> </div>,,2,testing.1,testing,dot,,AB
5497,NA,,html-button-delay-response,10,54767,0.0-10.0,77g1m6po3w,,<div  class = 'container2'> <div class='container3'><div class='palette'><div class='color1_red'></div><div class='color2'></div><div class='color3'></div><div class='color4'></div><div class='color5'></div><div class='color6'></div><div class='color7'></div><div class='color8'></div></div><div class='dot21'></div></div> </div>,,0,testing.2,testing,dot,,notAnotB
17397,NA,,html-button-delay-response,11,72669,0.0-11.0,77g1m6po3w,,<div  class = 'container2'> <div class='container3'><div class='palette'><div class='color1'></div><div class='color2'></div><div class='color3'></div><div class='color4'></div><div class='color5'></div><div class='color6'></div><div class='color7_red'></div><div class='color8'></div></div><div class='dot67'></div></div> </div>,,0,testing.11,testing,dot,,AnotB_red
16717,NA,,html-button-delay-response,12,89891,0.0-12.0,77g1m6po3w,,<div  class = 'container2'> <div class='container3'><div class='palette'><div class='color1'></div><div class='color2'></div><div class='color3'></div><div class='color4'></div><div class='color5'></div><div class='color6'></div><div class='color7_red'></div><div class='color8'></div></div><div class='dot76'></div></div> </div>,,0,testing.3,testing,dot,,notAB
5176,NA,,html-button-delay-response,13,95571,0.0-13.0,77g1m6po3w,,<div  class = 'container2'> <div class='container3'><div class='palette'><div class='color1'></div><div class='color2'></div><div class='color3'></div><div class='color4'></div><div class='color5'></div><div class='color6_red'></div><div class='color7'></div><div class='color8'></div></div><div class='dot56'></div></div> </div>,,1,testing.9,testing,dot,,AnotB_red
5017,NA,,html-button-delay-response,14,101092,0.0-14.0,77g1m6po3w,,<div  class = 'container2'> <div class='container3'><div class='palette'><div class='color1'></div><div class='color2_red'></div><div class='color3'></div><div class='color4'></div><div class='color5'></div><div class='color6'></div><div class='color7'></div><div class='color8'></div></div><div class='dot56'></div></div> </div>,,1,testing.6,testing,dot,,AnotB_grey
4926,NA,,html-button-delay-response,15,106522,0.0-15.0,77g1m6po3w,,<div  class = 'container2'> <div class='container3'><div class='palette'><div class='color1'></div><div class='color2'></div><div class='color3'></div><div class='color4'></div><div class='color5'></div><div class='color6_red'></div><div class='color7'></div><div class='color8'></div></div><div class='dot76'></div></div> </div>,,0,testing.15,testing,dot,,notAnotB
4913,NA,,html-button-delay-response,16,111939,0.0-16.0,77g1m6po3w,,<div  class = 'container2'> <div class='container3'><div class='palette'><div class='color1'></div><div class='color2'></div><div class='color3_red'></div><div class='color4'></div><div class='color5'></div><div class='color6'></div><div class='color7'></div><div class='color8'></div></div><div class='dot43'></div></div> </div>,,0,testing.14,testing,dot,,notAnotB
6054,NA,,html-button-delay-response,17,118496,0.0-17.0,77g1m6po3w,,<div  class = 'container2'> <div class='container3'><div class='palette'><div class='color1'></div><div class='color2_red'></div><div class='color3'></div><div class='color4'></div><div class='color5'></div><div class='color6'></div><div class='color7'></div><div class='color8'></div></div><div class='dot12'></div></div> </div>,,1,testing.10,testing,dot,,AnotB_red
4556,NA,,html-button-delay-response,18,123555,0.0-18.0,77g1m6po3w,,<div  class = 'container2'> <div class='container3'><div class='palette'><div class='color1'></div><div class='color2'></div><div class='color3'></div><div class='color4'></div><div class='color5_red'></div><div class='color6'></div><div class='color7'></div><div class='color8'></div></div><div class='dot78'></div></div> </div>,,1,testing.8,testing,dot,,AnotB_grey
4904,NA,,html-button-delay-response,19,128963,0.0-19.0,77g1m6po3w,,<div  class = 'container2'> <div class='container3'><div class='palette'><div class='color1'></div><div class='color2_red'></div><div class='color3'></div><div class='color4'></div><div class='color5'></div><div class='color6'></div><div class='color7'></div><div class='color8'></div></div><div class='dot23'></div></div> </div>,,2,testing.12,testing,dot,,AB
4874,NA,,html-button-delay-response,20,134342,0.0-20.0,77g1m6po3w,,<div  class = 'container2'> <div class='container3'><div class='palette'><div class='color1'></div><div class='color2'></div><div class='color3'></div><div class='color4'></div><div class='color5'></div><div class='color6'></div><div class='color7_red'></div><div class='color8'></div></div><div class='dot45'></div></div> </div>,,1,testing.7,testing,dot,,AnotB_grey
4884,NA,,html-button-delay-response,21,139731,0.0-21.0,77g1m6po3w,,<div  class = 'container2'> <div class='container3'><div class='palette'><div class='color1'></div><div class='color2'></div><div class='color3'></div><div class='color4_red'></div><div class='color5'></div><div class='color6'></div><div class='color7'></div><div class='color8'></div></div><div class='dot45'></div></div> </div>,,2,testing.13,testing,dot,,AB
5572,NA,,html-button-delay-response,22,145808,0.0-22.0,77g1m6po3w,,<div  class = 'container2'> <div class='container3'><div class='palette'><div class='color1'></div><div class='color2'></div><div class='color3'></div><div class='color4'></div><div class='color5_red'></div><div class='color6'></div><div class='color7'></div><div class='color8'></div></div><div class='dot54'></div></div> </div>,,0,testing.5,testing,dot,,notAB
4949,NA,,html-button-delay-response,23,151261,0.0-23.0,77g1m6po3w,,<div  class = 'container2'> <div class='container3'><div class='palette'><div class='color1'></div><div class='color2'></div><div class='color3_red'></div><div class='color4'></div><div class='color5'></div><div class='color6'></div><div class='color7'></div><div class='color8'></div></div><div class='dot32'></div></div> </div>,,0,testing.4,testing,dot,,notAB
9284,['wugging had to do with the direction of the movement/rotation direction'],self_report,survey-multi-select,24,161055,0.0-24.0,77g1m6po3w,,,,,,,,,
27669,1g,demo.1,survey-dropdown,25,188729,0.0-25.0,77g1m6po3w,,,,,,,,,
27669,none,demo.2,survey-dropdown,25,188729,0.0-25.0,77g1m6po3w,,,,,,,,,
27669,NA,demo.3,survey-dropdown,25,188729,0.0-25.0,77g1m6po3w,,,,,,,,,
27669,NA,demo.4,survey-dropdown,25,188729,0.0-25.0,77g1m6po3w,,,,,,,,,
3181,5eade36d3bfa880ea74e86e0,ProlificID,survey-text,0,3182,0.0-0.0,6oxlucrj3l,,,,,,,,,
3774,NA,instructions,instructions,1,6956,0.0-1.0,6oxlucrj3l,"[{""page_index"":0,""viewing_time"":3773}]",,,,,,,,
null,NA,,html-keyboard-response,2,10458,0.0-2.0,6oxlucrj3l,,<p style='text-align:center'>The dot is going to wug:</p><div  class = 'container'> <div class='container3'><div class='palette'><div class='color1_red'></div><div class='color2'></div><div class='color3'></div><div class='color4'></div><div class='color5'></div><div class='color6'></div><div class='color7'></div><div class='color8'></div></div><div class='dot12'></div></div> </div>,null,,,,,,
null,NA,,html-keyboard-response,3,14962,0.0-3.0,6oxlucrj3l,,<p style='text-align:center'>The dot is going to wug:</p><div  class = 'container'> <div class='container3'><div class='palette'><div class='color1'></div><div class='color2_red'></div><div class='color3'></div><div class='color4'></div><div class='color5'></div><div class='color6'></div><div class='color7'></div><div class='color8'></div></div><div class='dot23'></div></div> </div>,null,,,,,,
null,NA,,html-keyboard-response,4,19469,0.0-4.0,6oxlucrj3l,,<p style='text-align:center'>The dot is going to wug:</p><div  class = 'container'> <div class='container3'><div class='palette'><div class='color1'></div><div class='color2'></div><div class='color3'></div><div class='color4_red'></div><div class='color5'></div><div class='color6'></div><div class='color7'></div><div class='color8'></div></div><div class='dot45'></div></div> </div>,null,,,,,,
null,NA,,html-keyboard-response,5,23972,0.0-5.0,6oxlucrj3l,,<p style='text-align:center'>The dot is going to wug:</p><div  class = 'container'> <div class='container3'><div class='palette'><div class='color1'></div><div class='color2'></div><div class='color3_red'></div><div class='color4'></div><div class='color5'></div><div class='color6'></div><div class='color7'></div><div class='color8'></div></div><div class='dot34'></div></div> </div>,null,,,,,,
null,NA,,html-keyboard-response,6,28478,0.0-6.0,6oxlucrj3l,,<p style='text-align:center'>The dot is going to wug:</p><div  class = 'container'> <div class='container3'><div class='palette'><div class='color1'></div><div class='color2'></div><div class='color3'></div><div class='color4'></div><div class='color5'></div><div class='color6'></div><div class='color7_red'></div><div class='color8'></div></div><div class='dot78'></div></div> </div>,null,,,,,,
null,NA,,html-keyboard-response,7,32981,0.0-7.0,6oxlucrj3l,,<p style='text-align:center'>The dot is going to wug:</p><div  class = 'container'> <div class='container3'><div class='palette'><div class='color1'></div><div class='color2'></div><div class='color3'></div><div class='color4'></div><div class='color5'></div><div class='color6_red'></div><div class='color7'></div><div class='color8'></div></div><div class='dot67'></div></div> </div>,null,,,,,,
3360,NA,break,html-button-response,8,37344,0.0-8.0,6oxlucrj3l,,"<p style='text-align:center'>Now, let's see how <b>you</b> use <i>wug</i>! You will see animations and will be asked to make a decision.</p>",,0,,,,,
6421,NA,,html-button-delay-response,9,43766,0.0-9.0,6oxlucrj3l,,<div  class = 'container2'> <div class='container3'><div class='palette'><div class='color1'></div><div class='color2'></div><div class='color3'></div><div class='color4'></div><div class='color5_red'></div><div class='color6'></div><div class='color7'></div><div class='color8'></div></div><div class='dot56'></div></div> </div>,,2,testing.1,testing,dot,,AB
5716,NA,,html-button-delay-response,10,49984,0.0-10.0,6oxlucrj3l,,<div  class = 'container2'> <div class='container3'><div class='palette'><div class='color1_red'></div><div class='color2'></div><div class='color3'></div><div class='color4'></div><div class='color5'></div><div class='color6'></div><div class='color7'></div><div class='color8'></div></div><div class='dot21'></div></div> </div>,,2,testing.2,testing,dot,,notAnotB
7173,NA,,html-button-delay-response,11,57659,0.0-11.0,6oxlucrj3l,,<div  class = 'container2'> <div class='container3'><div class='palette'><div class='color1'></div><div class='color2_red'></div><div class='color3'></div><div class='color4'></div><div class='color5'></div><div class='color6'></div><div class='color7'></div><div class='color8'></div></div><div class='dot56'></div></div> </div>,,1,testing.6,testing,dot,,AnotB_grey
4459,NA,,html-button-delay-response,12,62620,0.0-12.0,6oxlucrj3l,,<div  class = 'container2'> <div class='container3'><div class='palette'><div class='color1'></div><div class='color2'></div><div class='color3'></div><div class='color4'></div><div class='color5'></div><div class='color6_red'></div><div class='color7'></div><div class='color8'></div></div><div class='dot76'></div></div> </div>,,2,testing.15,testing,dot,,notAnotB
4576,NA,,html-button-delay-response,13,67699,0.0-13.0,6oxlucrj3l,,<div  class = 'container2'> <div class='container3'><div class='palette'><div class='color1'></div><div class='color2'></div><div class='color3_red'></div><div class='color4'></div><div class='color5'></div><div class='color6'></div><div class='color7'></div><div class='color8'></div></div><div class='dot43'></div></div> </div>,,2,testing.14,testing,dot,,notAnotB
4423,NA,,html-button-delay-response,14,72624,0.0-14.0,6oxlucrj3l,,<div  class = 'container2'> <div class='container3'><div class='palette'><div class='color1'></div><div class='color2'></div><div class='color3'></div><div class='color4'></div><div class='color5_red'></div><div class='color6'></div><div class='color7'></div><div class='color8'></div></div><div class='dot78'></div></div> </div>,,2,testing.8,testing,dot,,AnotB_grey
4463,NA,,html-button-delay-response,15,77589,0.0-15.0,6oxlucrj3l,,<div  class = 'container2'> <div class='container3'><div class='palette'><div class='color1'></div><div class='color2'></div><div class='color3'></div><div class='color4'></div><div class='color5'></div><div class='color6'></div><div class='color7_red'></div><div class='color8'></div></div><div class='dot76'></div></div> </div>,,1,testing.3,testing,dot,,notAB
4430,NA,,html-button-delay-response,16,82521,0.0-16.0,6oxlucrj3l,,<div  class = 'container2'> <div class='container3'><div class='palette'><div class='color1'></div><div class='color2'></div><div class='color3'></div><div class='color4'></div><div class='color5_red'></div><div class='color6'></div><div class='color7'></div><div class='color8'></div></div><div class='dot54'></div></div> </div>,,1,testing.5,testing,dot,,notAB
4527,NA,,html-button-delay-response,17,87549,0.0-17.0,6oxlucrj3l,,<div  class = 'container2'> <div class='container3'><div class='palette'><div class='color1'></div><div class='color2'></div><div class='color3'></div><div class='color4_red'></div><div class='color5'></div><div class='color6'></div><div class='color7'></div><div class='color8'></div></div><div class='dot45'></div></div> </div>,,2,testing.13,testing,dot,,AB
4429,NA,,html-button-delay-response,18,92479,0.0-18.0,6oxlucrj3l,,<div  class = 'container2'> <div class='container3'><div class='palette'><div class='color1'></div><div class='color2_red'></div><div class='color3'></div><div class='color4'></div><div class='color5'></div><div class='color6'></div><div class='color7'></div><div class='color8'></div></div><div class='dot23'></div></div> </div>,,2,testing.12,testing,dot,,AB
4554,NA,,html-button-delay-response,19,97534,0.0-19.0,6oxlucrj3l,,<div  class = 'container2'> <div class='container3'><div class='palette'><div class='color1'></div><div class='color2'></div><div class='color3'></div><div class='color4'></div><div class='color5'></div><div class='color6'></div><div class='color7_red'></div><div class='color8'></div></div><div class='dot45'></div></div> </div>,,2,testing.7,testing,dot,,AnotB_grey
4419,NA,,html-button-delay-response,20,102455,0.0-20.0,6oxlucrj3l,,<div  class = 'container2'> <div class='container3'><div class='palette'><div class='color1'></div><div class='color2'></div><div class='color3_red'></div><div class='color4'></div><div class='color5'></div><div class='color6'></div><div class='color7'></div><div class='color8'></div></div><div class='dot32'></div></div> </div>,,2,testing.4,testing,dot,,notAB
4428,NA,,html-button-delay-response,21,107387,0.0-21.0,6oxlucrj3l,,<div  class = 'container2'> <div class='container3'><div class='palette'><div class='color1'></div><div class='color2'></div><div class='color3'></div><div class='color4'></div><div class='color5'></div><div class='color6_red'></div><div class='color7'></div><div class='color8'></div></div><div class='dot56'></div></div> </div>,,2,testing.9,testing,dot,,AnotB_red
4814,NA,,html-button-delay-response,22,112702,0.0-22.0,6oxlucrj3l,,<div  class = 'container2'> <div class='container3'><div class='palette'><div class='color1'></div><div class='color2'></div><div class='color3'></div><div class='color4'></div><div class='color5'></div><div class='color6'></div><div class='color7_red'></div><div class='color8'></div></div><div class='dot67'></div></div> </div>,,1,testing.11,testing,dot,,AnotB_red
4415,NA,,html-button-delay-response,23,117619,0.0-23.0,6oxlucrj3l,,<div  class = 'container2'> <div class='container3'><div class='palette'><div class='color1'></div><div class='color2_red'></div><div class='color3'></div><div class='color4'></div><div class='color5'></div><div class='color6'></div><div class='color7'></div><div class='color8'></div></div><div class='dot12'></div></div> </div>,,2,testing.10,testing,dot,,AnotB_red
7954,['wugging had to do with the direction of the movement/rotation direction'],self_report,survey-multi-select,24,126079,0.0-24.0,6oxlucrj3l,,,,,,,,,
21578,1ug,demo.1,survey-dropdown,25,147659,0.0-25.0,6oxlucrj3l,,,,,,,,,
21578,1ug,demo.2,survey-dropdown,25,147659,0.0-25.0,6oxlucrj3l,,,,,,,,,
21578,female,demo.3,survey-dropdown,25,147659,0.0-25.0,6oxlucrj3l,,,,,,,,,
21578,12-24,demo.4,survey-dropdown,25,147659,0.0-25.0,6oxlucrj3l,,,,,,,,,
14094,5c48783e58807900010816d1,ProlificID,survey-text,0,14099,0.0-0.0,q7wxgv5e8u,,,,,,,,,
5126,NA,instructions,instructions,1,19229,0.0-1.0,q7wxgv5e8u,"[{""page_index"":0,""viewing_time"":5125}]",,,,,,,,
null,NA,,html-keyboard-response,2,22735,0.0-2.0,q7wxgv5e8u,,<p style='text-align:center'>The dot is going to wug:</p><div  class = 'container'> <div class='container3'><div class='palette'><div class='color1'></div><div class='color2'></div><div class='color3'></div><div class='color4'></div><div class='color5'></div><div class='color6_red'></div><div class='color7'></div><div class='color8'></div></div><div class='dot67'></div></div> </div>,null,,,,,,
null,NA,,html-keyboard-response,3,27240,0.0-3.0,q7wxgv5e8u,,<p style='text-align:center'>The dot is going to wug:</p><div  class = 'container'> <div class='container3'><div class='palette'><div class='color1'></div><div class='color2_red'></div><div class='color3'></div><div class='color4'></div><div class='color5'></div><div class='color6'></div><div class='color7'></div><div class='color8'></div></div><div class='dot23'></div></div> </div>,null,,,,,,
null,NA,,html-keyboard-response,4,31745,0.0-4.0,q7wxgv5e8u,,<p style='text-align:center'>The dot is going to wug:</p><div  class = 'container'> <div class='container3'><div class='palette'><div class='color1'></div><div class='color2'></div><div class='color3_red'></div><div class='color4'></div><div class='color5'></div><div class='color6'></div><div class='color7'></div><div class='color8'></div></div><div class='dot34'></div></div> </div>,null,,,,,,
null,NA,,html-keyboard-response,5,36250,0.0-5.0,q7wxgv5e8u,,<p style='text-align:center'>The dot is going to wug:</p><div  class = 'container'> <div class='container3'><div class='palette'><div class='color1'></div><div class='color2'></div><div class='color3'></div><div class='color4'></div><div class='color5'></div><div class='color6'></div><div class='color7_red'></div><div class='color8'></div></div><div class='dot78'></div></div> </div>,null,,,,,,
null,NA,,html-keyboard-response,6,40755,0.0-6.0,q7wxgv5e8u,,<p style='text-align:center'>The dot is going to wug:</p><div  class = 'container'> <div class='container3'><div class='palette'><div class='color1_red'></div><div class='color2'></div><div class='color3'></div><div class='color4'></div><div class='color5'></div><div class='color6'></div><div class='color7'></div><div class='color8'></div></div><div class='dot12'></div></div> </div>,null,,,,,,
null,NA,,html-keyboard-response,7,45261,0.0-7.0,q7wxgv5e8u,,<p style='text-align:center'>The dot is going to wug:</p><div  class = 'container'> <div class='container3'><div class='palette'><div class='color1'></div><div class='color2'></div><div class='color3'></div><div class='color4_red'></div><div class='color5'></div><div class='color6'></div><div class='color7'></div><div class='color8'></div></div><div class='dot45'></div></div> </div>,null,,,,,,
4525,NA,break,html-button-response,8,50792,0.0-8.0,q7wxgv5e8u,,"<p style='text-align:center'>Now, let's see how <b>you</b> use <i>wug</i>! You will see animations and will be asked to make a decision.</p>",,0,,,,,
5963,NA,,html-button-delay-response,9,56759,0.0-9.0,q7wxgv5e8u,,<div  class = 'container2'> <div class='container3'><div class='palette'><div class='color1'></div><div class='color2'></div><div class='color3'></div><div class='color4'></div><div class='color5_red'></div><div class='color6'></div><div class='color7'></div><div class='color8'></div></div><div class='dot56'></div></div> </div>,,2,testing.1,testing,dot,,AB
10747,NA,,html-button-delay-response,10,68009,0.0-10.0,q7wxgv5e8u,,<div  class = 'container2'> <div class='container3'><div class='palette'><div class='color1_red'></div><div class='color2'></div><div class='color3'></div><div class='color4'></div><div class='color5'></div><div class='color6'></div><div class='color7'></div><div class='color8'></div></div><div class='dot21'></div></div> </div>,,1,testing.2,testing,dot,,notAnotB
4753,NA,,html-button-delay-response,11,73273,0.0-11.0,q7wxgv5e8u,,<div  class = 'container2'> <div class='container3'><div class='palette'><div class='color1'></div><div class='color2'></div><div class='color3'></div><div class='color4'></div><div class='color5'></div><div class='color6'></div><div class='color7_red'></div><div class='color8'></div></div><div class='dot76'></div></div> </div>,,1,testing.3,testing,dot,,notAB
4722,NA,,html-button-delay-response,12,78499,0.0-12.0,q7wxgv5e8u,,<div  class = 'container2'> <div class='container3'><div class='palette'><div class='color1'></div><div class='color2'></div><div class='color3'></div><div class='color4'></div><div class='color5'></div><div class='color6'></div><div class='color7_red'></div><div class='color8'></div></div><div class='dot45'></div></div> </div>,,0,testing.7,testing,dot,,AnotB_grey
4786,NA,,html-button-delay-response,13,83790,0.0-13.0,q7wxgv5e8u,,<div  class = 'container2'> <div class='container3'><div class='palette'><div class='color1'></div><div class='color2_red'></div><div class='color3'></div><div class='color4'></div><div class='color5'></div><div class='color6'></div><div class='color7'></div><div class='color8'></div></div><div class='dot23'></div></div> </div>,,2,testing.12,testing,dot,,AB
6873,NA,,html-button-delay-response,14,91168,0.0-14.0,q7wxgv5e8u,,<div  class = 'container2'> <div class='container3'><div class='palette'><div class='color1'></div><div class='color2_red'></div><div class='color3'></div><div class='color4'></div><div class='color5'></div><div class='color6'></div><div class='color7'></div><div class='color8'></div></div><div class='dot12'></div></div> </div>,,0,testing.10,testing,dot,,AnotB_red
4764,NA,,html-button-delay-response,15,96440,0.0-15.0,q7wxgv5e8u,,<div  class = 'container2'> <div class='container3'><div class='palette'><div class='color1'></div><div class='color2'></div><div class='color3'></div><div class='color4'></div><div class='color5'></div><div class='color6_red'></div><div class='color7'></div><div class='color8'></div></div><div class='dot76'></div></div> </div>,,0,testing.15,testing,dot,,notAnotB
4664,NA,,html-button-delay-response,16,101609,0.0-16.0,q7wxgv5e8u,,<div  class = 'container2'> <div class='container3'><div class='palette'><div class='color1'></div><div class='color2'></div><div class='color3'></div><div class='color4'></div><div class='color5_red'></div><div class='color6'></div><div class='color7'></div><div class='color8'></div></div><div class='dot54'></div></div> </div>,,1,testing.5,testing,dot,,notAB
4746,NA,,html-button-delay-response,17,106858,0.0-17.0,q7wxgv5e8u,,<div  class = 'container2'> <div class='container3'><div class='palette'><div class='color1'></div><div class='color2'></div><div class='color3'></div><div class='color4_red'></div><div class='color5'></div><div class='color6'></div><div class='color7'></div><div class='color8'></div></div><div class='dot45'></div></div> </div>,,2,testing.13,testing,dot,,AB
7694,NA,,html-button-delay-response,18,115056,0.0-18.0,q7wxgv5e8u,,<div  class = 'container2'> <div class='container3'><div class='palette'><div class='color1'></div><div class='color2'></div><div class='color3'></div><div class='color4'></div><div class='color5'></div><div class='color6_red'></div><div class='color7'></div><div class='color8'></div></div><div class='dot56'></div></div> </div>,,1,testing.9,testing,dot,,AnotB_red
7025,NA,,html-button-delay-response,19,122585,0.0-19.0,q7wxgv5e8u,,<div  class = 'container2'> <div class='container3'><div class='palette'><div class='color1'></div><div class='color2'></div><div class='color3_red'></div><div class='color4'></div><div class='color5'></div><div class='color6'></div><div class='color7'></div><div class='color8'></div></div><div class='dot43'></div></div> </div>,,0,testing.14,testing,dot,,notAnotB
4610,NA,,html-button-delay-response,20,127700,0.0-20.0,q7wxgv5e8u,,<div  class = 'container2'> <div class='container3'><div class='palette'><div class='color1'></div><div class='color2'></div><div class='color3'></div><div class='color4'></div><div class='color5'></div><div class='color6'></div><div class='color7_red'></div><div class='color8'></div></div><div class='dot67'></div></div> </div>,,1,testing.11,testing,dot,,AnotB_red
5431,NA,,html-button-delay-response,21,133636,0.0-21.0,q7wxgv5e8u,,<div  class = 'container2'> <div class='container3'><div class='palette'><div class='color1'></div><div class='color2'></div><div class='color3'></div><div class='color4'></div><div class='color5_red'></div><div class='color6'></div><div class='color7'></div><div class='color8'></div></div><div class='dot78'></div></div> </div>,,1,testing.8,testing,dot,,AnotB_grey
7405,NA,,html-button-delay-response,22,141545,0.0-22.0,q7wxgv5e8u,,<div  class = 'container2'> <div class='container3'><div class='palette'><div class='color1'></div><div class='color2'></div><div class='color3_red'></div><div class='color4'></div><div class='color5'></div><div class='color6'></div><div class='color7'></div><div class='color8'></div></div><div class='dot32'></div></div> </div>,,1,testing.4,testing,dot,,notAB
7006,NA,,html-button-delay-response,23,149055,0.0-23.0,q7wxgv5e8u,,<div  class = 'container2'> <div class='container3'><div class='palette'><div class='color1'></div><div class='color2_red'></div><div class='color3'></div><div class='color4'></div><div class='color5'></div><div class='color6'></div><div class='color7'></div><div class='color8'></div></div><div class='dot56'></div></div> </div>,,0,testing.6,testing,dot,,AnotB_grey
13153,"['wugging had to do with the direction of the movement/rotation direction', 'wugging had to do with the colors']",self_report,survey-multi-select,24,162720,0.0-24.0,q7wxgv5e8u,,,,,,,,,
24995,none,demo.1,survey-dropdown,25,187720,0.0-25.0,q7wxgv5e8u,,,,,,,,,
24995,none,demo.2,survey-dropdown,25,187720,0.0-25.0,q7wxgv5e8u,,,,,,,,,
24995,male,demo.3,survey-dropdown,25,187720,0.0-25.0,q7wxgv5e8u,,,,,,,,,
24995,55-64,demo.4,survey-dropdown,25,187720,0.0-25.0,q7wxgv5e8u,,,,,,,,,
5912,5f78b0e3b43f410c88d3af45,ProlificID,survey-text,0,5919,0.0-0.0,zwuge3tuc4,,,,,,,,,
7940,NA,instructions,instructions,1,13859,0.0-1.0,zwuge3tuc4,"[{""page_index"":0,""viewing_time"":7939}]",,,,,,,,
null,NA,,html-keyboard-response,2,17361,0.0-2.0,zwuge3tuc4,,<p style='text-align:center'>The dot is going to wug:</p><div  class = 'container'> <div class='container3'><div class='palette'><div class='color1_red'></div><div class='color2'></div><div class='color3'></div><div class='color4'></div><div class='color5'></div><div class='color6'></div><div class='color7'></div><div class='color8'></div></div><div class='dot12'></div></div> </div>,null,,,,,,
null,NA,,html-keyboard-response,3,21866,0.0-3.0,zwuge3tuc4,,<p style='text-align:center'>The dot is going to wug:</p><div  class = 'container'> <div class='container3'><div class='palette'><div class='color1'></div><div class='color2'></div><div class='color3'></div><div class='color4'></div><div class='color5'></div><div class='color6_red'></div><div class='color7'></div><div class='color8'></div></div><div class='dot67'></div></div> </div>,null,,,,,,
null,NA,,html-keyboard-response,4,26370,0.0-4.0,zwuge3tuc4,,<p style='text-align:center'>The dot is going to wug:</p><div  class = 'container'> <div class='container3'><div class='palette'><div class='color1'></div><div class='color2'></div><div class='color3_red'></div><div class='color4'></div><div class='color5'></div><div class='color6'></div><div class='color7'></div><div class='color8'></div></div><div class='dot34'></div></div> </div>,null,,,,,,
null,NA,,html-keyboard-response,5,30875,0.0-5.0,zwuge3tuc4,,<p style='text-align:center'>The dot is going to wug:</p><div  class = 'container'> <div class='container3'><div class='palette'><div class='color1'></div><div class='color2_red'></div><div class='color3'></div><div class='color4'></div><div class='color5'></div><div class='color6'></div><div class='color7'></div><div class='color8'></div></div><div class='dot23'></div></div> </div>,null,,,,,,
null,NA,,html-keyboard-response,6,35379,0.0-6.0,zwuge3tuc4,,<p style='text-align:center'>The dot is going to wug:</p><div  class = 'container'> <div class='container3'><div class='palette'><div class='color1'></div><div class='color2'></div><div class='color3'></div><div class='color4_red'></div><div class='color5'></div><div class='color6'></div><div class='color7'></div><div class='color8'></div></div><div class='dot45'></div></div> </div>,null,,,,,,
null,NA,,html-keyboard-response,7,39882,0.0-7.0,zwuge3tuc4,,<p style='text-align:center'>The dot is going to wug:</p><div  class = 'container'> <div class='container3'><div class='palette'><div class='color1'></div><div class='color2'></div><div class='color3'></div><div class='color4'></div><div class='color5'></div><div class='color6'></div><div class='color7_red'></div><div class='color8'></div></div><div class='dot78'></div></div> </div>,null,,,,,,
5193,NA,break,html-button-response,8,46080,0.0-8.0,zwuge3tuc4,,"<p style='text-align:center'>Now, let's see how <b>you</b> use <i>wug</i>! You will see animations and will be asked to make a decision.</p>",,0,,,,,
8573,NA,,html-button-delay-response,9,54653,0.0-9.0,zwuge3tuc4,,<div  class = 'container2'> <div class='container3'><div class='palette'><div class='color1'></div><div class='color2'></div><div class='color3'></div><div class='color4'></div><div class='color5_red'></div><div class='color6'></div><div class='color7'></div><div class='color8'></div></div><div class='dot56'></div></div> </div>,,2,testing.1,testing,dot,,AB
5950,NA,,html-button-delay-response,10,61106,0.0-10.0,zwuge3tuc4,,<div  class = 'container2'> <div class='container3'><div class='palette'><div class='color1_red'></div><div class='color2'></div><div class='color3'></div><div class='color4'></div><div class='color5'></div><div class='color6'></div><div class='color7'></div><div class='color8'></div></div><div class='dot21'></div></div> </div>,,0,testing.2,testing,dot,,notAnotB
7172,NA,,html-button-delay-response,11,68781,0.0-11.0,zwuge3tuc4,,<div  class = 'container2'> <div class='container3'><div class='palette'><div class='color1'></div><div class='color2'></div><div class='color3'></div><div class='color4'></div><div class='color5_red'></div><div class='color6'></div><div class='color7'></div><div class='color8'></div></div><div class='dot54'></div></div> </div>,,0,testing.5,testing,dot,,notAB
5523,NA,,html-button-delay-response,12,74807,0.0-12.0,zwuge3tuc4,,<div  class = 'container2'> <div class='container3'><div class='palette'><div class='color1'></div><div class='color2'></div><div class='color3'></div><div class='color4'></div><div class='color5_red'></div><div class='color6'></div><div class='color7'></div><div class='color8'></div></div><div class='dot78'></div></div> </div>,,2,testing.8,testing,dot,,AnotB_grey
4828,NA,,html-button-delay-response,13,80139,0.0-13.0,zwuge3tuc4,,<div  class = 'container2'> <div class='container3'><div class='palette'><div class='color1'></div><div class='color2_red'></div><div class='color3'></div><div class='color4'></div><div class='color5'></div><div class='color6'></div><div class='color7'></div><div class='color8'></div></div><div class='dot23'></div></div> </div>,,2,testing.12,testing,dot,,AB
5346,NA,,html-button-delay-response,14,85988,0.0-14.0,zwuge3tuc4,,<div  class = 'container2'> <div class='container3'><div class='palette'><div class='color1'></div><div class='color2'></div><div class='color3'></div><div class='color4'></div><div class='color5'></div><div class='color6_red'></div><div class='color7'></div><div class='color8'></div></div><div class='dot76'></div></div> </div>,,0,testing.15,testing,dot,,notAnotB
4989,NA,,html-button-delay-response,15,91479,0.0-15.0,zwuge3tuc4,,<div  class = 'container2'> <div class='container3'><div class='palette'><div class='color1'></div><div class='color2_red'></div><div class='color3'></div><div class='color4'></div><div class='color5'></div><div class='color6'></div><div class='color7'></div><div class='color8'></div></div><div class='dot12'></div></div> </div>,,2,testing.10,testing,dot,,AnotB_red
5402,NA,,html-button-delay-response,16,97385,0.0-16.0,zwuge3tuc4,,<div  class = 'container2'> <div class='container3'><div class='palette'><div class='color1'></div><div class='color2_red'></div><div class='color3'></div><div class='color4'></div><div class='color5'></div><div class='color6'></div><div class='color7'></div><div class='color8'></div></div><div class='dot56'></div></div> </div>,,2,testing.6,testing,dot,,AnotB_grey
5179,NA,,html-button-delay-response,17,103068,0.0-17.0,zwuge3tuc4,,<div  class = 'container2'> <div class='container3'><div class='palette'><div class='color1'></div><div class='color2'></div><div class='color3'></div><div class='color4'></div><div class='color5'></div><div class='color6'></div><div class='color7_red'></div><div class='color8'></div></div><div class='dot76'></div></div> </div>,,0,testing.3,testing,dot,,notAB
4821,NA,,html-button-delay-response,18,108391,0.0-18.0,zwuge3tuc4,,<div  class = 'container2'> <div class='container3'><div class='palette'><div class='color1'></div><div class='color2'></div><div class='color3_red'></div><div class='color4'></div><div class='color5'></div><div class='color6'></div><div class='color7'></div><div class='color8'></div></div><div class='dot43'></div></div> </div>,,0,testing.14,testing,dot,,notAnotB
4967,NA,,html-button-delay-response,19,113860,0.0-19.0,zwuge3tuc4,,<div  class = 'container2'> <div class='container3'><div class='palette'><div class='color1'></div><div class='color2'></div><div class='color3_red'></div><div class='color4'></div><div class='color5'></div><div class='color6'></div><div class='color7'></div><div class='color8'></div></div><div class='dot32'></div></div> </div>,,0,testing.4,testing,dot,,notAB
5148,NA,,html-button-delay-response,20,119511,0.0-20.0,zwuge3tuc4,,<div  class = 'container2'> <div class='container3'><div class='palette'><div class='color1'></div><div class='color2'></div><div class='color3'></div><div class='color4'></div><div class='color5'></div><div class='color6'></div><div class='color7_red'></div><div class='color8'></div></div><div class='dot45'></div></div> </div>,,2,testing.7,testing,dot,,AnotB_grey
4769,NA,,html-button-delay-response,21,124782,0.0-21.0,zwuge3tuc4,,<div  class = 'container2'> <div class='container3'><div class='palette'><div class='color1'></div><div class='color2'></div><div class='color3'></div><div class='color4_red'></div><div class='color5'></div><div class='color6'></div><div class='color7'></div><div class='color8'></div></div><div class='dot45'></div></div> </div>,,2,testing.13,testing,dot,,AB
5071,NA,,html-button-delay-response,22,130356,0.0-22.0,zwuge3tuc4,,<div  class = 'container2'> <div class='container3'><div class='palette'><div class='color1'></div><div class='color2'></div><div class='color3'></div><div class='color4'></div><div class='color5'></div><div class='color6_red'></div><div class='color7'></div><div class='color8'></div></div><div class='dot56'></div></div> </div>,,2,testing.9,testing,dot,,AnotB_red
4792,NA,,html-button-delay-response,23,135650,0.0-23.0,zwuge3tuc4,,<div  class = 'container2'> <div class='container3'><div class='palette'><div class='color1'></div><div class='color2'></div><div class='color3'></div><div class='color4'></div><div class='color5'></div><div class='color6'></div><div class='color7_red'></div><div class='color8'></div></div><div class='dot67'></div></div> </div>,,2,testing.11,testing,dot,,AnotB_red
12035,['wugging had to do with the direction of the movement/rotation direction'],self_report,survey-multi-select,24,148192,0.0-24.0,zwuge3tuc4,,,,,,,,,
34556,2+ug,demo.1,survey-dropdown,25,182752,0.0-25.0,zwuge3tuc4,,,,,,,,,
34556,2+g,demo.2,survey-dropdown,25,182752,0.0-25.0,zwuge3tuc4,,,,,,,,,
34556,male,demo.3,survey-dropdown,25,182752,0.0-25.0,zwuge3tuc4,,,,,,,,,
34556,12-24,demo.4,survey-dropdown,25,182752,0.0-25.0,zwuge3tuc4,,,,,,,,,
36317,5ea89f088bb083108f4fe370,ProlificID,survey-text,0,36320,0.0-0.0,m7032a3a8w,,,,,,,,,
3488,NA,instructions,instructions,1,39809,0.0-1.0,m7032a3a8w,"[{""page_index"":0,""viewing_time"":3485}]",,,,,,,,
null,NA,,html-keyboard-response,2,43313,0.0-2.0,m7032a3a8w,,<p style='text-align:center'>The dot is going to wug:</p><div  class = 'container'> <div class='container3'><div class='palette'><div class='color1'></div><div class='color2'></div><div class='color3_red'></div><div class='color4'></div><div class='color5'></div><div class='color6'></div><div class='color7'></div><div class='color8'></div></div><div class='dot34'></div></div> </div>,null,,,,,,
null,NA,,html-keyboard-response,3,47816,0.0-3.0,m7032a3a8w,,<p style='text-align:center'>The dot is going to wug:</p><div  class = 'container'> <div class='container3'><div class='palette'><div class='color1'></div><div class='color2'></div><div class='color3'></div><div class='color4'></div><div class='color5'></div><div class='color6_red'></div><div class='color7'></div><div class='color8'></div></div><div class='dot67'></div></div> </div>,null,,,,,,
null,NA,,html-keyboard-response,4,52319,0.0-4.0,m7032a3a8w,,<p style='text-align:center'>The dot is going to wug:</p><div  class = 'container'> <div class='container3'><div class='palette'><div class='color1_red'></div><div class='color2'></div><div class='color3'></div><div class='color4'></div><div class='color5'></div><div class='color6'></div><div class='color7'></div><div class='color8'></div></div><div class='dot12'></div></div> </div>,null,,,,,,
null,NA,,html-keyboard-response,5,56828,0.0-5.0,m7032a3a8w,,<p style='text-align:center'>The dot is going to wug:</p><div  class = 'container'> <div class='container3'><div class='palette'><div class='color1'></div><div class='color2'></div><div class='color3'></div><div class='color4'></div><div class='color5'></div><div class='color6'></div><div class='color7_red'></div><div class='color8'></div></div><div class='dot78'></div></div> </div>,null,,,,,,
null,NA,,html-keyboard-response,6,61330,0.0-6.0,m7032a3a8w,,<p style='text-align:center'>The dot is going to wug:</p><div  class = 'container'> <div class='container3'><div class='palette'><div class='color1'></div><div class='color2_red'></div><div class='color3'></div><div class='color4'></div><div class='color5'></div><div class='color6'></div><div class='color7'></div><div class='color8'></div></div><div class='dot23'></div></div> </div>,null,,,,,,
null,NA,,html-keyboard-response,7,65834,0.0-7.0,m7032a3a8w,,<p style='text-align:center'>The dot is going to wug:</p><div  class = 'container'> <div class='container3'><div class='palette'><div class='color1'></div><div class='color2'></div><div class='color3'></div><div class='color4_red'></div><div class='color5'></div><div class='color6'></div><div class='color7'></div><div class='color8'></div></div><div class='dot45'></div></div> </div>,null,,,,,,
30048,NA,break,html-button-response,8,96886,0.0-8.0,m7032a3a8w,,"<p style='text-align:center'>Now, let's see how <b>you</b> use <i>wug</i>! You will see animations and will be asked to make a decision.</p>",,0,,,,,
13359,NA,,html-button-delay-response,9,110247,0.0-9.0,m7032a3a8w,,<div  class = 'container2'> <div class='container3'><div class='palette'><div class='color1'></div><div class='color2'></div><div class='color3'></div><div class='color4'></div><div class='color5_red'></div><div class='color6'></div><div class='color7'></div><div class='color8'></div></div><div class='dot56'></div></div> </div>,,2,testing.1,testing,dot,,AB
8869,NA,,html-button-delay-response,10,119618,0.0-10.0,m7032a3a8w,,<div  class = 'container2'> <div class='container3'><div class='palette'><div class='color1_red'></div><div class='color2'></div><div class='color3'></div><div class='color4'></div><div class='color5'></div><div class='color6'></div><div class='color7'></div><div class='color8'></div></div><div class='dot21'></div></div> </div>,,2,testing.2,testing,dot,,notAnotB
9259,NA,,html-button-delay-response,11,129379,0.0-11.0,m7032a3a8w,,<div  class = 'container2'> <div class='container3'><div class='palette'><div class='color1'></div><div class='color2'></div><div class='color3'></div><div class='color4'></div><div class='color5'></div><div class='color6_red'></div><div class='color7'></div><div class='color8'></div></div><div class='dot76'></div></div> </div>,,2,testing.15,testing,dot,,notAnotB
5151,NA,,html-button-delay-response,12,135033,0.0-12.0,m7032a3a8w,,<div  class = 'container2'> <div class='container3'><div class='palette'><div class='color1'></div><div class='color2'></div><div class='color3'></div><div class='color4'></div><div class='color5'></div><div class='color6_red'></div><div class='color7'></div><div class='color8'></div></div><div class='dot56'></div></div> </div>,,2,testing.9,testing,dot,,AnotB_red
5888,NA,,html-button-delay-response,13,141422,0.0-13.0,m7032a3a8w,,<div  class = 'container2'> <div class='container3'><div class='palette'><div class='color1'></div><div class='color2'></div><div class='color3'></div><div class='color4'></div><div class='color5'></div><div class='color6'></div><div class='color7_red'></div><div class='color8'></div></div><div class='dot67'></div></div> </div>,,2,testing.11,testing,dot,,AnotB_red
8494,NA,,html-button-delay-response,14,150419,0.0-14.0,m7032a3a8w,,<div  class = 'container2'> <div class='container3'><div class='palette'><div class='color1'></div><div class='color2'></div><div class='color3'></div><div class='color4'></div><div class='color5'></div><div class='color6'></div><div class='color7_red'></div><div class='color8'></div></div><div class='dot76'></div></div> </div>,,2,testing.3,testing,dot,,notAB
21481,NA,,html-button-delay-response,15,172403,0.0-15.0,m7032a3a8w,,<div  class = 'container2'> <div class='container3'><div class='palette'><div class='color1'></div><div class='color2'></div><div class='color3_red'></div><div class='color4'></div><div class='color5'></div><div class='color6'></div><div class='color7'></div><div class='color8'></div></div><div class='dot32'></div></div> </div>,,2,testing.4,testing,dot,,notAB
5116,NA,,html-button-delay-response,16,178021,0.0-16.0,m7032a3a8w,,<div  class = 'container2'> <div class='container3'><div class='palette'><div class='color1'></div><div class='color2'></div><div class='color3'></div><div class='color4'></div><div class='color5_red'></div><div class='color6'></div><div class='color7'></div><div class='color8'></div></div><div class='dot78'></div></div> </div>,,2,testing.8,testing,dot,,AnotB_grey
15077,NA,,html-button-delay-response,17,193600,0.0-17.0,m7032a3a8w,,<div  class = 'container2'> <div class='container3'><div class='palette'><div class='color1'></div><div class='color2_red'></div><div class='color3'></div><div class='color4'></div><div class='color5'></div><div class='color6'></div><div class='color7'></div><div class='color8'></div></div><div class='dot23'></div></div> </div>,,2,testing.12,testing,dot,,AB
9974,NA,,html-button-delay-response,18,204077,0.0-18.0,m7032a3a8w,,<div  class = 'container2'> <div class='container3'><div class='palette'><div class='color1'></div><div class='color2'></div><div class='color3'></div><div class='color4'></div><div class='color5_red'></div><div class='color6'></div><div class='color7'></div><div class='color8'></div></div><div class='dot54'></div></div> </div>,,2,testing.5,testing,dot,,notAB
5393,NA,,html-button-delay-response,19,209972,0.0-19.0,m7032a3a8w,,<div  class = 'container2'> <div class='container3'><div class='palette'><div class='color1'></div><div class='color2'></div><div class='color3_red'></div><div class='color4'></div><div class='color5'></div><div class='color6'></div><div class='color7'></div><div class='color8'></div></div><div class='dot43'></div></div> </div>,,2,testing.14,testing,dot,,notAnotB
4969,NA,,html-button-delay-response,20,215443,0.0-20.0,m7032a3a8w,,<div  class = 'container2'> <div class='container3'><div class='palette'><div class='color1'></div><div class='color2'></div><div class='color3'></div><div class='color4_red'></div><div class='color5'></div><div class='color6'></div><div class='color7'></div><div class='color8'></div></div><div class='dot45'></div></div> </div>,,2,testing.13,testing,dot,,AB
5085,NA,,html-button-delay-response,21,221030,0.0-21.0,m7032a3a8w,,<div  class = 'container2'> <div class='container3'><div class='palette'><div class='color1'></div><div class='color2'></div><div class='color3'></div><div class='color4'></div><div class='color5'></div><div class='color6'></div><div class='color7_red'></div><div class='color8'></div></div><div class='dot45'></div></div> </div>,,2,testing.7,testing,dot,,AnotB_grey
5027,NA,,html-button-delay-response,22,226559,0.0-22.0,m7032a3a8w,,<div  class = 'container2'> <div class='container3'><div class='palette'><div class='color1'></div><div class='color2_red'></div><div class='color3'></div><div class='color4'></div><div class='color5'></div><div class='color6'></div><div class='color7'></div><div class='color8'></div></div><div class='dot56'></div></div> </div>,,2,testing.6,testing,dot,,AnotB_grey
9120,NA,,html-button-delay-response,23,236181,0.0-23.0,m7032a3a8w,,<div  class = 'container2'> <div class='container3'><div class='palette'><div class='color1'></div><div class='color2_red'></div><div class='color3'></div><div class='color4'></div><div class='color5'></div><div class='color6'></div><div class='color7'></div><div class='color8'></div></div><div class='dot12'></div></div> </div>,,2,testing.10,testing,dot,,AnotB_red
4803,['wugging had to do with the direction of the movement/rotation direction'],self_report,survey-multi-select,24,241490,0.0-24.0,m7032a3a8w,,,,,,,,,
21890,2+ug,demo.1,survey-dropdown,25,263385,0.0-25.0,m7032a3a8w,,,,,,,,,
21890,2+g,demo.2,survey-dropdown,25,263385,0.0-25.0,m7032a3a8w,,,,,,,,,
21890,male,demo.3,survey-dropdown,25,263385,0.0-25.0,m7032a3a8w,,,,,,,,,
21890,35-44,demo.4,survey-dropdown,25,263385,0.0-25.0,m7032a3a8w,,,,,,,,,
14914,5c1cb570c5e16f00015e2ed0,ProlificID,survey-text,0,14922,0.0-0.0,uq6pxz3lvo,,,,,,,,,
54827,NA,instructions,instructions,1,69752,0.0-1.0,uq6pxz3lvo,"[{""page_index"":0,""viewing_time"":54825}]",,,,,,,,
null,NA,,html-keyboard-response,2,73260,0.0-2.0,uq6pxz3lvo,,<p style='text-align:center'>The dot is going to wug:</p><div  class = 'container'> <div class='container3'><div class='palette'><div class='color1'></div><div class='color2'></div><div class='color3_red'></div><div class='color4'></div><div class='color5'></div><div class='color6'></div><div class='color7'></div><div class='color8'></div></div><div class='dot34'></div></div> </div>,null,,,,,,
null,NA,,html-keyboard-response,3,77775,0.0-3.0,uq6pxz3lvo,,<p style='text-align:center'>The dot is going to wug:</p><div  class = 'container'> <div class='container3'><div class='palette'><div class='color1_red'></div><div class='color2'></div><div class='color3'></div><div class='color4'></div><div class='color5'></div><div class='color6'></div><div class='color7'></div><div class='color8'></div></div><div class='dot12'></div></div> </div>,null,,,,,,
null,NA,,html-keyboard-response,4,82279,0.0-4.0,uq6pxz3lvo,,<p style='text-align:center'>The dot is going to wug:</p><div  class = 'container'> <div class='container3'><div class='palette'><div class='color1'></div><div class='color2_red'></div><div class='color3'></div><div class='color4'></div><div class='color5'></div><div class='color6'></div><div class='color7'></div><div class='color8'></div></div><div class='dot23'></div></div> </div>,null,,,,,,
null,NA,,html-keyboard-response,5,86786,0.0-5.0,uq6pxz3lvo,,<p style='text-align:center'>The dot is going to wug:</p><div  class = 'container'> <div class='container3'><div class='palette'><div class='color1'></div><div class='color2'></div><div class='color3'></div><div class='color4_red'></div><div class='color5'></div><div class='color6'></div><div class='color7'></div><div class='color8'></div></div><div class='dot45'></div></div> </div>,null,,,,,,
null,NA,,html-keyboard-response,6,91292,0.0-6.0,uq6pxz3lvo,,<p style='text-align:center'>The dot is going to wug:</p><div  class = 'container'> <div class='container3'><div class='palette'><div class='color1'></div><div class='color2'></div><div class='color3'></div><div class='color4'></div><div class='color5'></div><div class='color6_red'></div><div class='color7'></div><div class='color8'></div></div><div class='dot67'></div></div> </div>,null,,,,,,
null,NA,,html-keyboard-response,7,95798,0.0-7.0,uq6pxz3lvo,,<p style='text-align:center'>The dot is going to wug:</p><div  class = 'container'> <div class='container3'><div class='palette'><div class='color1'></div><div class='color2'></div><div class='color3'></div><div class='color4'></div><div class='color5'></div><div class='color6'></div><div class='color7_red'></div><div class='color8'></div></div><div class='dot78'></div></div> </div>,null,,,,,,
41097,NA,break,html-button-response,8,137898,0.0-8.0,uq6pxz3lvo,,"<p style='text-align:center'>Now, let's see how <b>you</b> use <i>wug</i>! You will see animations and will be asked to make a decision.</p>",,0,,,,,
8358,NA,,html-button-delay-response,9,146260,0.0-9.0,uq6pxz3lvo,,<div  class = 'container2'> <div class='container3'><div class='palette'><div class='color1'></div><div class='color2'></div><div class='color3'></div><div class='color4'></div><div class='color5_red'></div><div class='color6'></div><div class='color7'></div><div class='color8'></div></div><div class='dot56'></div></div> </div>,,1,testing.1,testing,dot,,AB
5306,NA,,html-button-delay-response,10,152071,0.0-10.0,uq6pxz3lvo,,<div  class = 'container2'> <div class='container3'><div class='palette'><div class='color1_red'></div><div class='color2'></div><div class='color3'></div><div class='color4'></div><div class='color5'></div><div class='color6'></div><div class='color7'></div><div class='color8'></div></div><div class='dot21'></div></div> </div>,,1,testing.2,testing,dot,,notAnotB
6863,NA,,html-button-delay-response,11,159437,0.0-11.0,uq6pxz3lvo,,<div  class = 'container2'> <div class='container3'><div class='palette'><div class='color1'></div><div class='color2'></div><div class='color3'></div><div class='color4'></div><div class='color5'></div><div class='color6'></div><div class='color7_red'></div><div class='color8'></div></div><div class='dot67'></div></div> </div>,,2,testing.11,testing,dot,,AnotB_red
5076,NA,,html-button-delay-response,12,165017,0.0-12.0,uq6pxz3lvo,,<div  class = 'container2'> <div class='container3'><div class='palette'><div class='color1'></div><div class='color2'></div><div class='color3'></div><div class='color4_red'></div><div class='color5'></div><div class='color6'></div><div class='color7'></div><div class='color8'></div></div><div class='dot45'></div></div> </div>,,2,testing.13,testing,dot,,AB
6222,NA,,html-button-delay-response,13,171743,0.0-13.0,uq6pxz3lvo,,<div  class = 'container2'> <div class='container3'><div class='palette'><div class='color1'></div><div class='color2'></div><div class='color3_red'></div><div class='color4'></div><div class='color5'></div><div class='color6'></div><div class='color7'></div><div class='color8'></div></div><div class='dot32'></div></div> </div>,,2,testing.4,testing,dot,,notAB
5859,NA,,html-button-delay-response,14,178120,0.0-14.0,uq6pxz3lvo,,<div  class = 'container2'> <div class='container3'><div class='palette'><div class='color1'></div><div class='color2'></div><div class='color3'></div><div class='color4'></div><div class='color5'></div><div class='color6_red'></div><div class='color7'></div><div class='color8'></div></div><div class='dot76'></div></div> </div>,,2,testing.15,testing,dot,,notAnotB
5401,NA,,html-button-delay-response,15,184025,0.0-15.0,uq6pxz3lvo,,<div  class = 'container2'> <div class='container3'><div class='palette'><div class='color1'></div><div class='color2'></div><div class='color3'></div><div class='color4'></div><div class='color5_red'></div><div class='color6'></div><div class='color7'></div><div class='color8'></div></div><div class='dot54'></div></div> </div>,,2,testing.5,testing,dot,,notAB
5593,NA,,html-button-delay-response,16,190122,0.0-16.0,uq6pxz3lvo,,<div  class = 'container2'> <div class='container3'><div class='palette'><div class='color1'></div><div class='color2'></div><div class='color3'></div><div class='color4'></div><div class='color5_red'></div><div class='color6'></div><div class='color7'></div><div class='color8'></div></div><div class='dot78'></div></div> </div>,,2,testing.8,testing,dot,,AnotB_grey
5613,NA,,html-button-delay-response,17,196239,0.0-17.0,uq6pxz3lvo,,<div  class = 'container2'> <div class='container3'><div class='palette'><div class='color1'></div><div class='color2_red'></div><div class='color3'></div><div class='color4'></div><div class='color5'></div><div class='color6'></div><div class='color7'></div><div class='color8'></div></div><div class='dot56'></div></div> </div>,,2,testing.6,testing,dot,,AnotB_grey
4931,NA,,html-button-delay-response,18,201673,0.0-18.0,uq6pxz3lvo,,<div  class = 'container2'> <div class='container3'><div class='palette'><div class='color1'></div><div class='color2'></div><div class='color3'></div><div class='color4'></div><div class='color5'></div><div class='color6'></div><div class='color7_red'></div><div class='color8'></div></div><div class='dot76'></div></div> </div>,,2,testing.3,testing,dot,,notAB
11220,NA,,html-button-delay-response,19,213397,0.0-19.0,uq6pxz3lvo,,<div  class = 'container2'> <div class='container3'><div class='palette'><div class='color1'></div><div class='color2'></div><div class='color3_red'></div><div class='color4'></div><div class='color5'></div><div class='color6'></div><div class='color7'></div><div class='color8'></div></div><div class='dot43'></div></div> </div>,,2,testing.14,testing,dot,,notAnotB
30285,NA,,html-button-delay-response,20,244224,0.0-20.0,uq6pxz3lvo,,<div  class = 'container2'> <div class='container3'><div class='palette'><div class='color1'></div><div class='color2'></div><div class='color3'></div><div class='color4'></div><div class='color5'></div><div class='color6_red'></div><div class='color7'></div><div class='color8'></div></div><div class='dot56'></div></div> </div>,,2,testing.9,testing,dot,,AnotB_red
15078,NA,,html-button-delay-response,21,259806,0.0-21.0,uq6pxz3lvo,,<div  class = 'container2'> <div class='container3'><div class='palette'><div class='color1'></div><div class='color2_red'></div><div class='color3'></div><div class='color4'></div><div class='color5'></div><div class='color6'></div><div class='color7'></div><div class='color8'></div></div><div class='dot12'></div></div> </div>,,2,testing.10,testing,dot,,AnotB_red
8647,NA,,html-button-delay-response,22,268957,0.0-22.0,uq6pxz3lvo,,<div  class = 'container2'> <div class='container3'><div class='palette'><div class='color1'></div><div class='color2_red'></div><div class='color3'></div><div class='color4'></div><div class='color5'></div><div class='color6'></div><div class='color7'></div><div class='color8'></div></div><div class='dot23'></div></div> </div>,,2,testing.12,testing,dot,,AB
11594,NA,,html-button-delay-response,23,281056,0.0-23.0,uq6pxz3lvo,,<div  class = 'container2'> <div class='container3'><div class='palette'><div class='color1'></div><div class='color2'></div><div class='color3'></div><div class='color4'></div><div class='color5'></div><div class='color6'></div><div class='color7_red'></div><div class='color8'></div></div><div class='dot45'></div></div> </div>,,2,testing.7,testing,dot,,AnotB_grey
7585,['wugging had to do with the direction of the movement/rotation direction'],self_report,survey-multi-select,24,289149,0.0-24.0,uq6pxz3lvo,,,,,,,,,
17282,none,demo.1,survey-dropdown,25,306438,0.0-25.0,uq6pxz3lvo,,,,,,,,,
17282,none,demo.2,survey-dropdown,25,306438,0.0-25.0,uq6pxz3lvo,,,,,,,,,
17282,female,demo.3,survey-dropdown,25,306438,0.0-25.0,uq6pxz3lvo,,,,,,,,,
17282,12-24,demo.4,survey-dropdown,25,306438,0.0-25.0,uq6pxz3lvo,,,,,,,,,
10226,5ba03cd2bde9810001e0f06b,ProlificID,survey-text,0,10228,0.0-0.0,ey8xmqcw6t,,,,,,,,,
5297,NA,instructions,instructions,1,15526,0.0-1.0,ey8xmqcw6t,"[{""page_index"":0,""viewing_time"":5297}]",,,,,,,,
null,NA,,html-keyboard-response,2,19028,0.0-2.0,ey8xmqcw6t,,<p style='text-align:center'>The dot is going to wug:</p><div  class = 'container'> <div class='container3'><div class='palette'><div class='color1'></div><div class='color2_red'></div><div class='color3'></div><div class='color4'></div><div class='color5'></div><div class='color6'></div><div class='color7'></div><div class='color8'></div></div><div class='dot23'></div></div> </div>,null,,,,,,
null,NA,,html-keyboard-response,3,23531,0.0-3.0,ey8xmqcw6t,,<p style='text-align:center'>The dot is going to wug:</p><div  class = 'container'> <div class='container3'><div class='palette'><div class='color1'></div><div class='color2'></div><div class='color3_red'></div><div class='color4'></div><div class='color5'></div><div class='color6'></div><div class='color7'></div><div class='color8'></div></div><div class='dot34'></div></div> </div>,null,,,,,,
null,NA,,html-keyboard-response,4,28034,0.0-4.0,ey8xmqcw6t,,<p style='text-align:center'>The dot is going to wug:</p><div  class = 'container'> <div class='container3'><div class='palette'><div class='color1'></div><div class='color2'></div><div class='color3'></div><div class='color4'></div><div class='color5'></div><div class='color6_red'></div><div class='color7'></div><div class='color8'></div></div><div class='dot67'></div></div> </div>,null,,,,,,
null,NA,,html-keyboard-response,5,32537,0.0-5.0,ey8xmqcw6t,,<p style='text-align:center'>The dot is going to wug:</p><div  class = 'container'> <div class='container3'><div class='palette'><div class='color1'></div><div class='color2'></div><div class='color3'></div><div class='color4_red'></div><div class='color5'></div><div class='color6'></div><div class='color7'></div><div class='color8'></div></div><div class='dot45'></div></div> </div>,null,,,,,,
null,NA,,html-keyboard-response,6,37040,0.0-6.0,ey8xmqcw6t,,<p style='text-align:center'>The dot is going to wug:</p><div  class = 'container'> <div class='container3'><div class='palette'><div class='color1_red'></div><div class='color2'></div><div class='color3'></div><div class='color4'></div><div class='color5'></div><div class='color6'></div><div class='color7'></div><div class='color8'></div></div><div class='dot12'></div></div> </div>,null,,,,,,
null,NA,,html-keyboard-response,7,41543,0.0-7.0,ey8xmqcw6t,,<p style='text-align:center'>The dot is going to wug:</p><div  class = 'container'> <div class='container3'><div class='palette'><div class='color1'></div><div class='color2'></div><div class='color3'></div><div class='color4'></div><div class='color5'></div><div class='color6'></div><div class='color7_red'></div><div class='color8'></div></div><div class='dot78'></div></div> </div>,null,,,,,,
3345,NA,break,html-button-response,8,45890,0.0-8.0,ey8xmqcw6t,,"<p style='text-align:center'>Now, let's see how <b>you</b> use <i>wug</i>! You will see animations and will be asked to make a decision.</p>",,0,,,,,
6180,NA,,html-button-delay-response,9,52072,0.0-9.0,ey8xmqcw6t,,<div  class = 'container2'> <div class='container3'><div class='palette'><div class='color1'></div><div class='color2'></div><div class='color3'></div><div class='color4'></div><div class='color5_red'></div><div class='color6'></div><div class='color7'></div><div class='color8'></div></div><div class='dot56'></div></div> </div>,,2,testing.1,testing,dot,,AB
6209,NA,,html-button-delay-response,10,58783,0.0-10.0,ey8xmqcw6t,,<div  class = 'container2'> <div class='container3'><div class='palette'><div class='color1_red'></div><div class='color2'></div><div class='color3'></div><div class='color4'></div><div class='color5'></div><div class='color6'></div><div class='color7'></div><div class='color8'></div></div><div class='dot21'></div></div> </div>,,0,testing.2,testing,dot,,notAnotB
5100,NA,,html-button-delay-response,11,64385,0.0-11.0,ey8xmqcw6t,,<div  class = 'container2'> <div class='container3'><div class='palette'><div class='color1'></div><div class='color2_red'></div><div class='color3'></div><div class='color4'></div><div class='color5'></div><div class='color6'></div><div class='color7'></div><div class='color8'></div></div><div class='dot12'></div></div> </div>,,1,testing.10,testing,dot,,AnotB_red
4772,NA,,html-button-delay-response,12,69659,0.0-12.0,ey8xmqcw6t,,<div  class = 'container2'> <div class='container3'><div class='palette'><div class='color1'></div><div class='color2'></div><div class='color3_red'></div><div class='color4'></div><div class='color5'></div><div class='color6'></div><div class='color7'></div><div class='color8'></div></div><div class='dot32'></div></div> </div>,,1,testing.4,testing,dot,,notAB
4897,NA,,html-button-delay-response,13,75059,0.0-13.0,ey8xmqcw6t,,<div  class = 'container2'> <div class='container3'><div class='palette'><div class='color1'></div><div class='color2_red'></div><div class='color3'></div><div class='color4'></div><div class='color5'></div><div class='color6'></div><div class='color7'></div><div class='color8'></div></div><div class='dot23'></div></div> </div>,,2,testing.12,testing,dot,,AB
4703,NA,,html-button-delay-response,14,80264,0.0-14.0,ey8xmqcw6t,,<div  class = 'container2'> <div class='container3'><div class='palette'><div class='color1'></div><div class='color2'></div><div class='color3'></div><div class='color4'></div><div class='color5'></div><div class='color6_red'></div><div class='color7'></div><div class='color8'></div></div><div class='dot76'></div></div> </div>,,0,testing.15,testing,dot,,notAnotB
4873,NA,,html-button-delay-response,15,85639,0.0-15.0,ey8xmqcw6t,,<div  class = 'container2'> <div class='container3'><div class='palette'><div class='color1'></div><div class='color2'></div><div class='color3_red'></div><div class='color4'></div><div class='color5'></div><div class='color6'></div><div class='color7'></div><div class='color8'></div></div><div class='dot43'></div></div> </div>,,0,testing.14,testing,dot,,notAnotB
5170,NA,,html-button-delay-response,16,91311,0.0-16.0,ey8xmqcw6t,,<div  class = 'container2'> <div class='container3'><div class='palette'><div class='color1'></div><div class='color2'></div><div class='color3'></div><div class='color4'></div><div class='color5'></div><div class='color6'></div><div class='color7_red'></div><div class='color8'></div></div><div class='dot45'></div></div> </div>,,1,testing.7,testing,dot,,AnotB_grey
6215,NA,,html-button-delay-response,17,98028,0.0-17.0,ey8xmqcw6t,,<div  class = 'container2'> <div class='container3'><div class='palette'><div class='color1'></div><div class='color2'></div><div class='color3'></div><div class='color4'></div><div class='color5_red'></div><div class='color6'></div><div class='color7'></div><div class='color8'></div></div><div class='dot54'></div></div> </div>,,0,testing.5,testing,dot,,notAB
4869,NA,,html-button-delay-response,18,103398,0.0-18.0,ey8xmqcw6t,,<div  class = 'container2'> <div class='container3'><div class='palette'><div class='color1'></div><div class='color2'></div><div class='color3'></div><div class='color4_red'></div><div class='color5'></div><div class='color6'></div><div class='color7'></div><div class='color8'></div></div><div class='dot45'></div></div> </div>,,2,testing.13,testing,dot,,AB
4505,NA,,html-button-delay-response,19,108406,0.0-19.0,ey8xmqcw6t,,<div  class = 'container2'> <div class='container3'><div class='palette'><div class='color1'></div><div class='color2_red'></div><div class='color3'></div><div class='color4'></div><div class='color5'></div><div class='color6'></div><div class='color7'></div><div class='color8'></div></div><div class='dot56'></div></div> </div>,,1,testing.6,testing,dot,,AnotB_grey
5018,NA,,html-button-delay-response,20,113926,0.0-20.0,ey8xmqcw6t,,<div  class = 'container2'> <div class='container3'><div class='palette'><div class='color1'></div><div class='color2'></div><div class='color3'></div><div class='color4'></div><div class='color5'></div><div class='color6'></div><div class='color7_red'></div><div class='color8'></div></div><div class='dot67'></div></div> </div>,,1,testing.11,testing,dot,,AnotB_red
4622,NA,,html-button-delay-response,21,119051,0.0-21.0,ey8xmqcw6t,,<div  class = 'container2'> <div class='container3'><div class='palette'><div class='color1'></div><div class='color2'></div><div class='color3'></div><div class='color4'></div><div class='color5'></div><div class='color6_red'></div><div class='color7'></div><div class='color8'></div></div><div class='dot56'></div></div> </div>,,1,testing.9,testing,dot,,AnotB_red
4616,NA,,html-button-delay-response,22,124168,0.0-22.0,ey8xmqcw6t,,<div  class = 'container2'> <div class='container3'><div class='palette'><div class='color1'></div><div class='color2'></div><div class='color3'></div><div class='color4'></div><div class='color5_red'></div><div class='color6'></div><div class='color7'></div><div class='color8'></div></div><div class='dot78'></div></div> </div>,,1,testing.8,testing,dot,,AnotB_grey
4496,NA,,html-button-delay-response,23,129167,0.0-23.0,ey8xmqcw6t,,<div  class = 'container2'> <div class='container3'><div class='palette'><div class='color1'></div><div class='color2'></div><div class='color3'></div><div class='color4'></div><div class='color5'></div><div class='color6'></div><div class='color7_red'></div><div class='color8'></div></div><div class='dot76'></div></div> </div>,,1,testing.3,testing,dot,,notAB
6074,"['wugging had to do with the direction of the movement/rotation direction', 'wugging had to do with the colors']",self_report,survey-multi-select,24,135746,0.0-24.0,ey8xmqcw6t,,,,,,,,,
18791,none,demo.1,survey-dropdown,25,154540,0.0-25.0,ey8xmqcw6t,,,,,,,,,
18791,none,demo.2,survey-dropdown,25,154540,0.0-25.0,ey8xmqcw6t,,,,,,,,,
18791,female,demo.3,survey-dropdown,25,154540,0.0-25.0,ey8xmqcw6t,,,,,,,,,
18791,12-24,demo.4,survey-dropdown,25,154540,0.0-25.0,ey8xmqcw6t,,,,,,,,,
5364,5c4627d87745160001527a4d,ProlificID,survey-text,0,5366,0.0-0.0,ywrqvarwp9,,,,,,,,,
4496,NA,instructions,instructions,1,9866,0.0-1.0,ywrqvarwp9,"[{""page_index"":0,""viewing_time"":4486}]",,,,,,,,
null,NA,,html-keyboard-response,2,13371,0.0-2.0,ywrqvarwp9,,<p style='text-align:center'>The dot is going to wug:</p><div  class = 'container'> <div class='container3'><div class='palette'><div class='color1'></div><div class='color2_red'></div><div class='color3'></div><div class='color4'></div><div class='color5'></div><div class='color6'></div><div class='color7'></div><div class='color8'></div></div><div class='dot23'></div></div> </div>,null,,,,,,
null,NA,,html-keyboard-response,3,17876,0.0-3.0,ywrqvarwp9,,<p style='text-align:center'>The dot is going to wug:</p><div  class = 'container'> <div class='container3'><div class='palette'><div class='color1'></div><div class='color2'></div><div class='color3_red'></div><div class='color4'></div><div class='color5'></div><div class='color6'></div><div class='color7'></div><div class='color8'></div></div><div class='dot34'></div></div> </div>,null,,,,,,
null,NA,,html-keyboard-response,4,22381,0.0-4.0,ywrqvarwp9,,<p style='text-align:center'>The dot is going to wug:</p><div  class = 'container'> <div class='container3'><div class='palette'><div class='color1'></div><div class='color2'></div><div class='color3'></div><div class='color4'></div><div class='color5'></div><div class='color6_red'></div><div class='color7'></div><div class='color8'></div></div><div class='dot67'></div></div> </div>,null,,,,,,
null,NA,,html-keyboard-response,5,26885,0.0-5.0,ywrqvarwp9,,<p style='text-align:center'>The dot is going to wug:</p><div  class = 'container'> <div class='container3'><div class='palette'><div class='color1'></div><div class='color2'></div><div class='color3'></div><div class='color4'></div><div class='color5'></div><div class='color6'></div><div class='color7_red'></div><div class='color8'></div></div><div class='dot78'></div></div> </div>,null,,,,,,
null,NA,,html-keyboard-response,6,31390,0.0-6.0,ywrqvarwp9,,<p style='text-align:center'>The dot is going to wug:</p><div  class = 'container'> <div class='container3'><div class='palette'><div class='color1_red'></div><div class='color2'></div><div class='color3'></div><div class='color4'></div><div class='color5'></div><div class='color6'></div><div class='color7'></div><div class='color8'></div></div><div class='dot12'></div></div> </div>,null,,,,,,
null,NA,,html-keyboard-response,7,35895,0.0-7.0,ywrqvarwp9,,<p style='text-align:center'>The dot is going to wug:</p><div  class = 'container'> <div class='container3'><div class='palette'><div class='color1'></div><div class='color2'></div><div class='color3'></div><div class='color4_red'></div><div class='color5'></div><div class='color6'></div><div class='color7'></div><div class='color8'></div></div><div class='dot45'></div></div> </div>,null,,,,,,
4261,NA,break,html-button-response,8,41162,0.0-8.0,ywrqvarwp9,,"<p style='text-align:center'>Now, let's see how <b>you</b> use <i>wug</i>! You will see animations and will be asked to make a decision.</p>",,0,,,,,
6796,NA,,html-button-delay-response,9,47962,0.0-9.0,ywrqvarwp9,,<div  class = 'container2'> <div class='container3'><div class='palette'><div class='color1'></div><div class='color2'></div><div class='color3'></div><div class='color4'></div><div class='color5_red'></div><div class='color6'></div><div class='color7'></div><div class='color8'></div></div><div class='dot56'></div></div> </div>,,2,testing.1,testing,dot,,AB
7506,NA,,html-button-delay-response,10,55972,0.0-10.0,ywrqvarwp9,,<div  class = 'container2'> <div class='container3'><div class='palette'><div class='color1_red'></div><div class='color2'></div><div class='color3'></div><div class='color4'></div><div class='color5'></div><div class='color6'></div><div class='color7'></div><div class='color8'></div></div><div class='dot21'></div></div> </div>,,1,testing.2,testing,dot,,notAnotB
12428,NA,,html-button-delay-response,11,68904,0.0-11.0,ywrqvarwp9,,<div  class = 'container2'> <div class='container3'><div class='palette'><div class='color1'></div><div class='color2'></div><div class='color3_red'></div><div class='color4'></div><div class='color5'></div><div class='color6'></div><div class='color7'></div><div class='color8'></div></div><div class='dot32'></div></div> </div>,,1,testing.4,testing,dot,,notAB
11899,NA,,html-button-delay-response,12,81307,0.0-12.0,ywrqvarwp9,,<div  class = 'container2'> <div class='container3'><div class='palette'><div class='color1'></div><div class='color2_red'></div><div class='color3'></div><div class='color4'></div><div class='color5'></div><div class='color6'></div><div class='color7'></div><div class='color8'></div></div><div class='dot56'></div></div> </div>,,1,testing.6,testing,dot,,AnotB_grey
5222,NA,,html-button-delay-response,13,87034,0.0-13.0,ywrqvarwp9,,<div  class = 'container2'> <div class='container3'><div class='palette'><div class='color1'></div><div class='color2_red'></div><div class='color3'></div><div class='color4'></div><div class='color5'></div><div class='color6'></div><div class='color7'></div><div class='color8'></div></div><div class='dot12'></div></div> </div>,,1,testing.10,testing,dot,,AnotB_red
5052,NA,,html-button-delay-response,14,92590,0.0-14.0,ywrqvarwp9,,<div  class = 'container2'> <div class='container3'><div class='palette'><div class='color1'></div><div class='color2'></div><div class='color3'></div><div class='color4'></div><div class='color5'></div><div class='color6_red'></div><div class='color7'></div><div class='color8'></div></div><div class='dot76'></div></div> </div>,,1,testing.15,testing,dot,,notAnotB
5779,NA,,html-button-delay-response,15,98874,0.0-15.0,ywrqvarwp9,,<div  class = 'container2'> <div class='container3'><div class='palette'><div class='color1'></div><div class='color2'></div><div class='color3'></div><div class='color4'></div><div class='color5'></div><div class='color6_red'></div><div class='color7'></div><div class='color8'></div></div><div class='dot56'></div></div> </div>,,1,testing.9,testing,dot,,AnotB_red
5186,NA,,html-button-delay-response,16,104565,0.0-16.0,ywrqvarwp9,,<div  class = 'container2'> <div class='container3'><div class='palette'><div class='color1'></div><div class='color2'></div><div class='color3'></div><div class='color4'></div><div class='color5'></div><div class='color6'></div><div class='color7_red'></div><div class='color8'></div></div><div class='dot67'></div></div> </div>,,1,testing.11,testing,dot,,AnotB_red
5140,NA,,html-button-delay-response,17,110210,0.0-17.0,ywrqvarwp9,,<div  class = 'container2'> <div class='container3'><div class='palette'><div class='color1'></div><div class='color2'></div><div class='color3'></div><div class='color4_red'></div><div class='color5'></div><div class='color6'></div><div class='color7'></div><div class='color8'></div></div><div class='dot45'></div></div> </div>,,2,testing.13,testing,dot,,AB
5739,NA,,html-button-delay-response,18,116453,0.0-18.0,ywrqvarwp9,,<div  class = 'container2'> <div class='container3'><div class='palette'><div class='color1'></div><div class='color2'></div><div class='color3'></div><div class='color4'></div><div class='color5_red'></div><div class='color6'></div><div class='color7'></div><div class='color8'></div></div><div class='dot54'></div></div> </div>,,1,testing.5,testing,dot,,notAB
4990,NA,,html-button-delay-response,19,121948,0.0-19.0,ywrqvarwp9,,<div  class = 'container2'> <div class='container3'><div class='palette'><div class='color1'></div><div class='color2'></div><div class='color3_red'></div><div class='color4'></div><div class='color5'></div><div class='color6'></div><div class='color7'></div><div class='color8'></div></div><div class='dot43'></div></div> </div>,,1,testing.14,testing,dot,,notAnotB
5041,NA,,html-button-delay-response,20,127494,0.0-20.0,ywrqvarwp9,,<div  class = 'container2'> <div class='container3'><div class='palette'><div class='color1'></div><div class='color2'></div><div class='color3'></div><div class='color4'></div><div class='color5'></div><div class='color6'></div><div class='color7_red'></div><div class='color8'></div></div><div class='dot45'></div></div> </div>,,1,testing.7,testing,dot,,AnotB_grey
4961,NA,,html-button-delay-response,21,132960,0.0-21.0,ywrqvarwp9,,<div  class = 'container2'> <div class='container3'><div class='palette'><div class='color1'></div><div class='color2'></div><div class='color3'></div><div class='color4'></div><div class='color5_red'></div><div class='color6'></div><div class='color7'></div><div class='color8'></div></div><div class='dot78'></div></div> </div>,,1,testing.8,testing,dot,,AnotB_grey
4905,NA,,html-button-delay-response,22,138369,0.0-22.0,ywrqvarwp9,,<div  class = 'container2'> <div class='container3'><div class='palette'><div class='color1'></div><div class='color2_red'></div><div class='color3'></div><div class='color4'></div><div class='color5'></div><div class='color6'></div><div class='color7'></div><div class='color8'></div></div><div class='dot23'></div></div> </div>,,2,testing.12,testing,dot,,AB
5326,NA,,html-button-delay-response,23,144199,0.0-23.0,ywrqvarwp9,,<div  class = 'container2'> <div class='container3'><div class='palette'><div class='color1'></div><div class='color2'></div><div class='color3'></div><div class='color4'></div><div class='color5'></div><div class='color6'></div><div class='color7_red'></div><div class='color8'></div></div><div class='dot76'></div></div> </div>,,1,testing.3,testing,dot,,notAB
9472,"['wugging had to do with the direction of the movement/rotation direction', 'wugging had to do with the colors']",self_report,survey-multi-select,24,154182,0.0-24.0,ywrqvarwp9,,,,,,,,,
27565,1g,demo.1,survey-dropdown,25,181752,0.0-25.0,ywrqvarwp9,,,,,,,,,
27565,2+ug,demo.2,survey-dropdown,25,181752,0.0-25.0,ywrqvarwp9,,,,,,,,,
27565,female,demo.3,survey-dropdown,25,181752,0.0-25.0,ywrqvarwp9,,,,,,,,,
27565,25-34,demo.4,survey-dropdown,25,181752,0.0-25.0,ywrqvarwp9,,,,,,,,,
43941,5c1b927f3c08ba000171621a,ProlificID,survey-text,0,43945,0.0-0.0,w6rd336tpd,,,,,,,,,
1569,NA,instructions,instructions,1,45516,0.0-1.0,w6rd336tpd,"[{""page_index"":0,""viewing_time"":1569}]",,,,,,,,
null,NA,,html-keyboard-response,2,49020,0.0-2.0,w6rd336tpd,,<p style='text-align:center'>The dot is going to wug:</p><div  class = 'container'> <div class='container3'><div class='palette'><div class='color1'></div><div class='color2'></div><div class='color3'></div><div class='color4'></div><div class='color5'></div><div class='color6'></div><div class='color7_red'></div><div class='color8'></div></div><div class='dot78'></div></div> </div>,null,,,,,,
null,NA,,html-keyboard-response,3,53543,0.0-3.0,w6rd336tpd,,<p style='text-align:center'>The dot is going to wug:</p><div  class = 'container'> <div class='container3'><div class='palette'><div class='color1_red'></div><div class='color2'></div><div class='color3'></div><div class='color4'></div><div class='color5'></div><div class='color6'></div><div class='color7'></div><div class='color8'></div></div><div class='dot12'></div></div> </div>,null,,,,,,
null,NA,,html-keyboard-response,4,58069,0.0-4.0,w6rd336tpd,,<p style='text-align:center'>The dot is going to wug:</p><div  class = 'container'> <div class='container3'><div class='palette'><div class='color1'></div><div class='color2'></div><div class='color3'></div><div class='color4'></div><div class='color5'></div><div class='color6_red'></div><div class='color7'></div><div class='color8'></div></div><div class='dot67'></div></div> </div>,null,,,,,,
null,NA,,html-keyboard-response,5,62582,0.0-5.0,w6rd336tpd,,<p style='text-align:center'>The dot is going to wug:</p><div  class = 'container'> <div class='container3'><div class='palette'><div class='color1'></div><div class='color2_red'></div><div class='color3'></div><div class='color4'></div><div class='color5'></div><div class='color6'></div><div class='color7'></div><div class='color8'></div></div><div class='dot23'></div></div> </div>,null,,,,,,
null,NA,,html-keyboard-response,6,67100,0.0-6.0,w6rd336tpd,,<p style='text-align:center'>The dot is going to wug:</p><div  class = 'container'> <div class='container3'><div class='palette'><div class='color1'></div><div class='color2'></div><div class='color3'></div><div class='color4_red'></div><div class='color5'></div><div class='color6'></div><div class='color7'></div><div class='color8'></div></div><div class='dot45'></div></div> </div>,null,,,,,,
null,NA,,html-keyboard-response,7,71605,0.0-7.0,w6rd336tpd,,<p style='text-align:center'>The dot is going to wug:</p><div  class = 'container'> <div class='container3'><div class='palette'><div class='color1'></div><div class='color2'></div><div class='color3_red'></div><div class='color4'></div><div class='color5'></div><div class='color6'></div><div class='color7'></div><div class='color8'></div></div><div class='dot34'></div></div> </div>,null,,,,,,
2436,NA,break,html-button-response,8,75052,0.0-8.0,w6rd336tpd,,"<p style='text-align:center'>Now, let's see how <b>you</b> use <i>wug</i>! You will see animations and will be asked to make a decision.</p>",,0,,,,,
6646,NA,,html-button-delay-response,9,81700,0.0-9.0,w6rd336tpd,,<div  class = 'container2'> <div class='container3'><div class='palette'><div class='color1'></div><div class='color2'></div><div class='color3'></div><div class='color4'></div><div class='color5_red'></div><div class='color6'></div><div class='color7'></div><div class='color8'></div></div><div class='dot56'></div></div> </div>,,2,testing.1,testing,dot,,AB
5594,NA,,html-button-delay-response,10,87808,0.0-10.0,w6rd336tpd,,<div  class = 'container2'> <div class='container3'><div class='palette'><div class='color1_red'></div><div class='color2'></div><div class='color3'></div><div class='color4'></div><div class='color5'></div><div class='color6'></div><div class='color7'></div><div class='color8'></div></div><div class='dot21'></div></div> </div>,,0,testing.2,testing,dot,,notAnotB
5418,NA,,html-button-delay-response,11,93729,0.0-11.0,w6rd336tpd,,<div  class = 'container2'> <div class='container3'><div class='palette'><div class='color1'></div><div class='color2'></div><div class='color3'></div><div class='color4'></div><div class='color5'></div><div class='color6'></div><div class='color7_red'></div><div class='color8'></div></div><div class='dot67'></div></div> </div>,,1,testing.11,testing,dot,,AnotB_red
5302,NA,,html-button-delay-response,12,99534,0.0-12.0,w6rd336tpd,,<div  class = 'container2'> <div class='container3'><div class='palette'><div class='color1'></div><div class='color2'></div><div class='color3'></div><div class='color4'></div><div class='color5'></div><div class='color6_red'></div><div class='color7'></div><div class='color8'></div></div><div class='dot56'></div></div> </div>,,2,testing.9,testing,dot,,AnotB_red
4958,NA,,html-button-delay-response,13,104996,0.0-13.0,w6rd336tpd,,<div  class = 'container2'> <div class='container3'><div class='palette'><div class='color1'></div><div class='color2'></div><div class='color3_red'></div><div class='color4'></div><div class='color5'></div><div class='color6'></div><div class='color7'></div><div class='color8'></div></div><div class='dot43'></div></div> </div>,,0,testing.14,testing,dot,,notAnotB
4951,NA,,html-button-delay-response,14,110466,0.0-14.0,w6rd336tpd,,<div  class = 'container2'> <div class='container3'><div class='palette'><div class='color1'></div><div class='color2'></div><div class='color3'></div><div class='color4_red'></div><div class='color5'></div><div class='color6'></div><div class='color7'></div><div class='color8'></div></div><div class='dot45'></div></div> </div>,,2,testing.13,testing,dot,,AB
5554,NA,,html-button-delay-response,15,116534,0.0-15.0,w6rd336tpd,,<div  class = 'container2'> <div class='container3'><div class='palette'><div class='color1'></div><div class='color2'></div><div class='color3'></div><div class='color4'></div><div class='color5_red'></div><div class='color6'></div><div class='color7'></div><div class='color8'></div></div><div class='dot54'></div></div> </div>,,2,testing.5,testing,dot,,notAB
4689,NA,,html-button-delay-response,16,121740,0.0-16.0,w6rd336tpd,,<div  class = 'container2'> <div class='container3'><div class='palette'><div class='color1'></div><div class='color2'></div><div class='color3_red'></div><div class='color4'></div><div class='color5'></div><div class='color6'></div><div class='color7'></div><div class='color8'></div></div><div class='dot32'></div></div> </div>,,2,testing.4,testing,dot,,notAB
4677,NA,,html-button-delay-response,17,126920,0.0-17.0,w6rd336tpd,,<div  class = 'container2'> <div class='container3'><div class='palette'><div class='color1'></div><div class='color2'></div><div class='color3'></div><div class='color4'></div><div class='color5'></div><div class='color6_red'></div><div class='color7'></div><div class='color8'></div></div><div class='dot76'></div></div> </div>,,2,testing.15,testing,dot,,notAnotB
4679,NA,,html-button-delay-response,18,132118,0.0-18.0,w6rd336tpd,,<div  class = 'container2'> <div class='container3'><div class='palette'><div class='color1'></div><div class='color2'></div><div class='color3'></div><div class='color4'></div><div class='color5'></div><div class='color6'></div><div class='color7_red'></div><div class='color8'></div></div><div class='dot45'></div></div> </div>,,1,testing.7,testing,dot,,AnotB_grey
4660,NA,,html-button-delay-response,19,137290,0.0-19.0,w6rd336tpd,,<div  class = 'container2'> <div class='container3'><div class='palette'><div class='color1'></div><div class='color2_red'></div><div class='color3'></div><div class='color4'></div><div class='color5'></div><div class='color6'></div><div class='color7'></div><div class='color8'></div></div><div class='dot56'></div></div> </div>,,1,testing.6,testing,dot,,AnotB_grey
4749,NA,,html-button-delay-response,20,142542,0.0-20.0,w6rd336tpd,,<div  class = 'container2'> <div class='container3'><div class='palette'><div class='color1'></div><div class='color2_red'></div><div class='color3'></div><div class='color4'></div><div class='color5'></div><div class='color6'></div><div class='color7'></div><div class='color8'></div></div><div class='dot23'></div></div> </div>,,1,testing.12,testing,dot,,AB
4795,NA,,html-button-delay-response,21,147857,0.0-21.0,w6rd336tpd,,<div  class = 'container2'> <div class='container3'><div class='palette'><div class='color1'></div><div class='color2'></div><div class='color3'></div><div class='color4'></div><div class='color5'></div><div class='color6'></div><div class='color7_red'></div><div class='color8'></div></div><div class='dot76'></div></div> </div>,,1,testing.3,testing,dot,,notAB
